Date-Time,Pressure (hPa),Temperature (°C),Roll,Pitch,Yaw ,X Acc (g),Y Acc (g),Z Acc (g),Gyro X (°/s),Gyro Y (°/s),Gyro Z (°/s),Mag X (µT),Mag Y (µT),Mag Z (µT)
2021-10-23 16:14:09.25,1020.309814453125,32.19,-0.7062827199649737,8.48890397223617,176.67800904434722,-2.4458129882812503,-1.00428466796875,9.68515625,0.030487804878048783,-0.030487804878048783,0.06097560975609757,-198.625,57.75,49.375
2021-10-23 16:14:09.44,1020.309814453125,32.4,-1.1597028668476843,18.167649818509645,173.11324507922913,-2.4386352539062504,-0.9899291992187501,9.7330078125,-0.09146341463414635,-0.06097560975609757,0.0,-198.125,52.625,52.375
2021-10-23 16:14:09.63,1020.361572265625,32.42,-0.30257144209056064,27.800254025969103,169.23371437145164,-2.4033447265625,-0.7393066406250001,9.736596679687501,9.908536585365855,-0.7621951219512195,2.378048780487805,-192.0,62.875,53.125
2021-10-23 16:14:09.83,1020.383544921875,32.44,-1.0021129771785233,10.192000301208758,172.06396596687574,-2.1210205078125,-1.0706787109375,11.43173828125,-87.77439024390245,-71.09756097560977,-46.25000000000001,-141.0,-16390.875,-32766.0
2021-10-23 16:14:10.03,1020.392822265625,32.41,8.388590020221173,17.748109638855766,-178.95251501795872,2.0372802734375,-8.287890625000001,12.483874511718751,285.7317073170732,253.68902439024393,194.69512195121953,-232.75,100.375,24575.5
2021-10-23 16:14:10.25,1020.36669921875,32.35,22.36187653305954,20.297918612683056,178.69967084012353,2.545703125,7.62694091796875,-16.492041015625002,102.25609756097562,-183.26219512195124,6.432926829268293,-166.0,82.25,20.75
2021-10-23 16:14:10.46,1020.31494140625,32.2,1.4835134327485493,19.5396124186332,-177.05826068350316,2.1108520507812503,-11.028588867187501,16.871862792968752,-153.56707317073173,41.3719512195122,127.59146341463416,-206.0,50.0,8209.625
2021-10-23 16:14:10.64,1020.3837890625,32.18,18.197823217210093,42.569215493591315,-164.82852571835204,-1.7986206054687501,3.2592895507812503,-9.2197998046875,138.32317073170734,426.76829268292687,113.26219512195122,-245.0,96.875,24585.5
2021-10-23 16:14:10.83,1020.337890625,32.14,9.13335710199699,4.028358679065189,173.0382927877574,3.6229614257812504,0.3122314453125,15.909448242187501,-114.72560975609757,-770.8536585365854,-217.31707317073173,-110.75,106.25,9.625
2021-10-23 16:14:11.02,1020.319091796875,32.15,3.886957091787237,11.121643490526871,170.4452840936205,3.63133544921875,-3.3029541015625004,17.517260742187503,-47.987804878048784,106.25000000000001,73.56707317073172,-184.375,96.875,29.5
2021-10-23 16:14:11.20,1020.362060546875,32.13,4.000547074912128,36.982434495265835,164.40685544790017,-5.76671142578125,2.6521728515625003,-7.144836425781251,-84.17682926829269,232.40853658536588,-10.76219512195122,-181.625,113.25,21.875
2021-10-23 16:14:11.39,1020.358154296875,32.11,16.85820535760516,23.405009624335822,157.0793213046999,5.35399169921875,2.241845703125,-19.6,131.52439024390245,-499.63414634146346,49.32926829268293,-91.125,144.375,-14.375
2021-10-23 16:14:11.59,1020.361328125,32.06,13.004144316373601,43.08052272963452,160.64102356866442,4.457373046875,5.28460693359375,7.05870361328125,-249.57317073170734,407.25609756097566,14.634146341463415,-175.0,83.875,39.75
2021-10-23 16:14:11.78,1020.318115234375,32.08,17.900900746443988,31.613243224975598,150.90342705073175,-2.839990234375,0.25361328125000004,-0.43604736328125004,148.78048780487805,-234.4817073170732,-76.00609756097562,-86.625,120.25,-24587.0
2021-10-23 16:14:11.97,1020.3271484375,32.03,14.904404184961164,6.385729029700924,137.3807737721657,12.675280761718751,2.6360229492187504,16.477685546875,-87.07317073170732,-314.8475609756098,-2.25609756097561,-49.25,103.25,-43.125
2021-10-23 16:14:12.16,1020.3759765625,32.03,15.377901689094655,-4.91968222185561,141.88097903951922,2.68267822265625,3.0050781250000003,0.19619140625,-206.58536585365854,162.77439024390245,238.47560975609758,-54.5,29.75,-48.25
2021-10-23 16:14:12.34,1020.333740234375,32.09,17.31368444403407,-24.87800623763554,123.12025277662603,8.449389648437501,-0.46116943359375,6.360668945312501,27.865853658536587,-177.53048780487808,-168.38414634146343,-45.75,85.75,-61.75
2021-10-23 16:14:12.53,1020.369384765625,32.1,9.817756859023158,-11.018022724371544,117.88872190930059,12.667504882812501,-3.4255737304687504,7.9122558593750005,-4.939024390243903,468.01829268292687,-51.920731707317074,-145.875,115.5,27.25
2021-10-23 16:14:12.72,1020.37646484375,32.1,4.003779262068548,1.1822353593941932,120.29826726028362,-5.218212890625001,2.5911621093750004,7.0018798828125,-55.213414634146346,-5.487804878048781,44.60365853658537,-95.125,72.375,16392.625
2021-10-23 16:14:12.91,1020.357666015625,32.1,-17.87831801142371,-31.159898253794665,135.35043838479848,4.05601806640625,-2.6103027343750003,4.04166259765625,-233.96341463414637,-422.07317073170736,161.34146341463415,-32.0,49.0,-97.25
2021-10-23 16:14:13.10,1020.347900390625,32.13,-8.154023332023696,-41.35263600829175,127.67213856202537,15.2897705078125,0.2763427734375,5.66502685546875,-84.45121951219512,-49.32926829268293,-121.4329268292683,-54.5,79.5,-8241.5
2021-10-23 16:14:13.29,1020.3740234375,32.09,-20.17483078018684,-29.10617253939395,124.77110473204299,1.7974243164062502,-4.0691772460937505,-4.55008544921875,-82.6219512195122,596.3719512195122,85.79268292682927,-152.875,26.375,31.0
2021-10-23 16:14:13.49,1020.357177734375,32.09,-19.10520942686567,-21.955136984512727,136.29870615371752,-2.0241210937500003,-6.51439208984375,8.385986328125,-38.38414634146342,-12.926829268292684,104.54268292682927,-139.375,-8225.5,-8266.25
2021-10-23 16:14:13.67,1020.3525390625,32.11,-39.923003571681065,-18.369495708880056,136.07249871594487,-2.4087280273437504,-5.06748046875,-5.54300537109375,-405.45731707317077,167.9268292682927,0.7621951219512195,-113.875,-22.25,-181.125
2021-10-23 16:14:13.86,1020.3701171875,32.12,-55.8284623085347,-20.369705625838368,135.84538865296366,-0.815869140625,-8.0761474609375,-5.6835693359375,-50.1829268292683,10.396341463414634,-38.84146341463415,-97.375,16396.875,-192.875
2021-10-23 16:14:14.05,1020.36767578125,32.13,-62.14332139666354,-32.17719366000798,134.99086670025525,1.8159667968750002,-2.4338500976562503,-8.533129882812501,-128.14024390243904,39.451219512195124,-126.92073170731709,-73.375,84.5,-214.25
2021-10-23 16:14:14.24,1020.374267578125,32.13,-62.969766585275025,-40.18974783687343,134.24688775882652,4.56085205078125,-0.60233154296875,-9.045739746093751,-57.987804878048784,89.84756097560977,-30.670731707317074,-59.625,125.125,-219.375
2021-10-23 16:14:14.42,1020.3193359375,32.13,-65.16416743345708,-54.71900370495109,140.3655126187294,8.09110107421875,3.54879150390625,-10.0332763671875,-33.140243902439025,-66.46341463414635,-48.23170731707317,-95.0,142.625,-224.625
2021-10-23 16:14:14.61,1020.39599609375,32.11,-52.83192116479097,-49.1076865097182,137.5600325094276,-4.0213256835937505,0.9540405273437501,-2.9488525390625,48.963414634146346,114.72560975609757,38.07926829268293,-57.25,133.0,-206.5
2021-10-23 16:14:14.80,1020.373291015625,32.09,-49.90445864079131,-61.913565921066365,142.78352620689938,12.374414062500001,4.577001953125,-10.88443603515625,31.920731707317074,-61.79878048780488,-3.628048780487805,-76.125,118.875,-216.375
2021-10-23 16:14:14.98,1020.338134765625,32.06,-40.97847859810839,-53.27648111781042,144.0116961851159,-4.207348632812501,-0.82962646484375,-1.7465820312500002,54.78658536585366,85.48780487804879,27.073170731707318,-50.375,119.625,-207.625
2021-10-23 16:14:15.17,1020.3310546875,32.06,-44.75060911156862,-67.5651837898643,155.75246782879117,9.972265625,1.9619140625000002,-10.26834716796875,54.268292682926834,-111.89024390243904,-9.542682926829269,-78.75,111.125,-223.375
2021-10-23 16:14:15.36,1020.380859375,32.04,-32.06377785511077,-63.01266013485228,149.59127582241382,4.3245849609375,-1.318310546875,-2.60491943359375,46.85975609756098,259.7256097560976,26.52439024390244,-36.25,112.375,-195.375
2021-10-23 16:14:15.54,1020.37353515625,32.04,-44.28722209210612,-76.00435259564327,172.82896394013042,10.24322509765625,-0.0681884765625,-9.123498535156251,108.9329268292683,-118.41463414634147,19.115853658536587,-64.0,80.625,-213.625
2021-10-23 16:14:15.73,1020.3408203125,32.04,-23.747317430687367,-61.91814475630479,174.70093310188685,1.7441894531250002,-2.44820556640625,1.5354370117187501,262.13414634146346,133.26219512195124,46.524390243902445,-26.125,34.25,-158.625
2021-10-23 16:14:15.92,1020.355224609375,32.04,-50.327467770010266,-68.82069414928928,-171.53837205961904,11.324670410156251,-5.53941650390625,-5.2206054687500005,-31.402439024390247,-18.8109756097561,32.43902439024391,-38.5,16392.125,-144.875
2021-10-23 16:14:16.11,1020.392578125,32.06,-86.31557775928934,-63.13202899211219,-120.57870903904477,2.34173583984375,-4.3861938476562505,-2.89681396484375,127.34756097560977,-183.2317073170732,172.50000000000003,-72.375,-30.0,-135.75
2021-10-23 16:14:16.30,1020.371826171875,32.04,-90.43361171454663,-59.78356393721822,-108.3320844718165,7.50491943359375,-17.027978515625,-3.1725585937500003,1.25,5.701219512195123,-13.079268292682928,-85.75,-38.75,-141.625
2021-10-23 16:14:16.49,1020.360107421875,32.03,-96.0633430435122,-46.31804150909551,-94.75516130801144,-0.70521240234375,0.29847412109375004,-2.87767333984375,28.01829268292683,20.0,107.8658536585366,-65.75,-8220.0,-134.25
2021-10-23 16:14:16.67,1020.3193359375,32.03,-103.54664095534534,-46.947620885104214,-86.20441034886191,8.522363281250001,-15.853820800781252,-3.2760375976562504,-86.12804878048782,-24.603658536585368,-94.72560975609757,-58.625,-14.0,-186.5
2021-10-23 16:14:16.87,1020.390625,32.04,-102.88483899669845,-36.425720835985125,-81.71793379737566,-1.4487060546875001,-0.284716796875,-2.00438232421875,-3.932926829268293,50.213414634146346,-43.78048780487805,-32.375,-32764.5,-168.75
2021-10-23 16:14:17.06,1020.340576171875,32.03,-107.99928200892093,-33.04370307333535,-79.97274532569286,12.474902343750001,-12.918725585937501,-3.2909912109375004,36.646341463414636,-54.024390243902445,-47.16463414634147,-48.875,24576.375,-196.375
2021-10-23 16:14:17.24,1020.369384765625,32.04,-105.26427055867993,-18.446664240697334,-80.28402998960391,-1.270458984375,-1.13228759765625,-2.99969482421875,11.067073170731708,49.268292682926834,75.27439024390245,-33.5,-32764.375,-161.75
2021-10-23 16:14:17.44,1020.352294921875,32.03,-104.56261172705007,-30.06886055919845,-79.58930859955176,15.369921875000001,-11.151208496093751,-1.3918823242187501,39.420731707317074,-9.786585365853659,-186.34146341463415,-30.375,16396.125,-164.0
2021-10-23 16:14:17.63,1020.33642578125,32.02,-102.18995636998903,-18.4242818660578,-78.94986909291006,1.5234741210937501,-1.6305419921875002,-1.9104736328125,-16.463414634146343,-23.140243902439025,183.84146341463415,-41.5,-24582.625,-150.375
2021-10-23 16:14:17.81,1020.36083984375,32.04,-90.8036161691524,-26.83644660027345,-82.21356194426339,12.686645507812502,-13.784240722656252,0.055627441406250006,23.475609756097562,39.51219512195122,-112.92682926829269,-44.375,-16395.0,-147.25
2021-10-23 16:14:17.99,1020.3564453125,32.04,-96.21024613965386,-10.37048282562973,-81.86513440755438,-0.7333251953125001,-2.1473388671875,-2.3202026367187503,-72.6829268292683,31.03658536585366,123.84146341463416,-43.375,-24585.0,-140.125
2021-10-23 16:14:18.19,1020.358154296875,32.05,-93.58209864643567,-17.905020288559662,-78.1950651609303,14.00675048828125,-15.104345703125,1.2244018554687501,24.085365853658537,-30.213414634146343,-26.158536585365855,-52.375,-17.625,-147.75
2021-10-23 16:14:18.38,1020.334228515625,32.04,-107.98566363538447,-9.753529942962038,-77.48163361869742,-0.6603515625,-1.796826171875,-3.5517822265625,-31.06707317073171,20.09146341463415,17.957317073170735,-30.25,24577.875,-136.5
2021-10-23 16:14:18.57,1020.3623046875,32.05,-100.47560337076587,-13.26137541535684,-73.07275082821053,14.272326660156251,-13.149011230468751,1.9768676757812502,-52.31707317073171,-132.9878048780488,35.97560975609756,-46.5,-8198.25,-185.75
2021-10-23 16:14:18.77,1020.34521484375,32.04,-107.30337976252817,-12.377824446586432,-75.24128181619582,-0.37384033203125,-0.9582275390625,-1.6155883789062502,61.00609756097562,95.03048780487806,-123.75000000000001,-14.625,8213.375,-158.875
2021-10-23 16:14:18.96,1020.34423828125,32.04,-111.79910466403213,-10.949487926906247,-71.91923366428962,14.673083496093751,-11.29237060546875,-0.7763916015625001,-98.78048780487806,-131.9817073170732,89.39024390243904,-39.75,32767.75,-195.25
2021-10-23 16:14:19.14,1020.372802734375,32.05,-118.84445903727523,-13.189167231185003,-75.39310699847634,-0.3289794921875,-1.5019409179687502,-2.9536376953125,17.439024390243905,100.45731707317074,-59.085365853658544,-20.0,17.375,-168.875
2021-10-23 16:14:19.33,1020.370849609375,32.05,-120.01845527016322,-10.040655626565423,-75.13974459155831,13.944543457031251,-11.18350830078125,-1.6078125,-65.09146341463415,-126.89024390243904,105.57926829268294,-38.875,32767.125,-186.25
2021-10-23 16:14:19.52,1020.329833984375,32.07,-118.81157505479429,-20.549791149778283,-79.43209925981202,0.8457763671875,-1.8087890625,-1.3135253906250002,31.34146341463415,130.609756097561,-112.6219512195122,-16.25,27.375,-159.375
2021-10-23 16:14:19.71,1020.359130859375,32.06,-105.08679774218143,-17.511122782626884,-79.56032594372053,12.990502929687501,-11.21939697265625,-0.045458984375000004,-10.884146341463415,-106.98170731707317,125.03048780487806,-40.625,-8199.375,-176.875
2021-10-23 16:14:19.90,1020.3642578125,32.04,-99.33619028649818,-30.25069431951298,-85.42785895766163,2.15511474609375,-2.88604736328125,-0.49825439453125003,53.23170731707317,100.45731707317074,-159.14634146341464,-11.875,26.625,-163.875
2021-10-23 16:14:20.09,1020.39697265625,32.05,-95.30182054334028,-23.233413236430355,-82.19592877611069,12.101062011718751,-9.09478759765625,-0.5000488281250001,-59.54268292682927,-106.00609756097562,133.78048780487805,-37.25,-32764.125,-180.5
2021-10-23 16:14:20.27,1020.387939453125,32.04,-110.20336469580943,-40.17362723289114,-70.69509621903404,1.36376953125,-0.97318115234375,-1.20526123046875,-46.79878048780488,119.69512195121952,-170.7926829268293,-16392.875,60.25,-173.625
2021-10-23 16:14:20.46,1020.3564453125,32.05,-114.69627660796765,-37.500605183066554,-68.53348984999458,12.495239257812502,-6.5233642578125,-3.04635009765625,-34.90853658536586,-103.75000000000001,116.67682926829269,-26.375,39.375,-205.75
2021-10-23 16:14:20.64,1020.331787109375,32.06,-106.48676165534512,-48.97196325138343,-79.72643673982088,3.1952880859375004,-1.3524047851562502,-1.23157958984375,80.82317073170732,155.97560975609758,-79.35975609756099,-11.625,56.5,-169.625
2021-10-23 16:14:20.83,1020.359619140625,32.05,-104.94818277555343,-42.657879844361666,-80.97971662537867,9.944750976562501,-5.38150634765625,-1.5198852539062502,-1.4634146341463417,-25.762195121951223,184.1158536585366,-26.625,15.875,-151.125
2021-10-23 16:14:21.04,1020.344482421875,32.04,-82.5860230550827,-40.23608158650019,-87.6642686895231,8.871081542968751,-8.9135498046875,0.10228271484375001,119.17682926829269,66.89024390243902,-14.26829268292683,-53.5,-24585.0,-79.0
2021-10-23 16:14:21.22,1020.3291015625,32.04,-73.7620432065648,-13.900642001873326,-105.51617977314432,5.30255126953125,-8.625244140625,3.060107421875,157.8658536585366,327.1036585365854,301.1890243902439,-201.0,24581.75,15.25
2021-10-23 16:14:21.41,1020.343017578125,32.02,-70.76235439104873,-1.7147011511730648,-97.06286623972424,-9.917834472656251,0.84757080078125,2.7167724609375004,86.58536585365854,48.38414634146342,129.20731707317074,-212.875,48.5,28.375
2021-10-23 16:14:21.60,1020.358642578125,32.01,-57.20527050249141,-18.448298847494097,-90.85267977517532,-2.667724609375,0.988134765625,10.89041748046875,136.6768292682927,-92.5609756097561,-284.9390243902439,-188.5,66.875,37.875
2021-10-23 16:14:21.78,1020.323486328125,31.98,-63.33679883452878,-16.9060026107556,-86.11021998285912,0.49047851562500006,-9.10196533203125,7.2961669921875005,-74.0548780487805,136.64634146341464,-18.902439024390244,-238.75,53.25,22.5
2021-10-23 16:14:21.97,1020.330078125,31.97,-67.82652126817791,-2.0202229259094446,-73.38900893469524,-5.71527099609375,-3.15999755859375,3.6666259765625004,-62.53048780487806,-14.573170731707318,183.59756097560978,-242.125,54.5,17.125
2021-10-23 16:14:22.17,1020.36474609375,31.96,-69.813015243312,9.157876409144277,-73.97866834351397,-8.87586669921875,0.49466552734375,6.7428833007812505,-194.2378048780488,-58.84146341463415,11.006097560975611,-229.375,8198.875,-32766.875
2021-10-23 16:14:22.35,1020.337890625,31.95,-80.13697586712013,17.637369460646397,-73.64356262606312,-9.802392578125001,0.66334228515625,3.45009765625,-65.94512195121952,-28.993902439024392,-49.78658536585366,-202.375,32767.375,8199.875
2021-10-23 16:14:22.53,1020.36767578125,31.93,-64.36404721372199,5.217211702106911,-60.18691739063535,-3.5613525390625003,-0.98035888671875,7.997192382812501,131.58536585365854,-72.07317073170732,-278.6890243902439,-157.25,45.25,22.125
2021-10-23 16:14:22.72,1020.321533203125,31.93,-60.96966422262629,0.9141373076991968,-54.90027025281766,1.9176513671875002,-7.9146484375,8.35906982421875,11.79878048780488,114.20731707317074,-71.95121951219512,-195.0,42.875,24.0
2021-10-23 16:14:22.91,1020.35498046875,31.9,-59.774241747160396,10.525272895400356,-39.34385036910683,-0.10826416015625001,-6.88524169921875,6.699218750000001,-31.646341463414636,8.597560975609756,243.14024390243904,-220.125,56.125,20.25
2021-10-23 16:14:23.10,1020.33251953125,31.92,-52.556479615162125,22.06556389458438,-25.57394304233957,-7.270446777343751,-0.36187744140625,6.51798095703125,-46.00609756097561,-18.628048780487806,87.34756097560977,-222.625,42.75,19.125
2021-10-23 16:14:23.29,1020.3310546875,31.92,-51.897472112711895,31.774128106955924,-24.923115529300503,-7.910461425781251,1.6299438476562502,8.7759765625,-259.6036585365854,-38.75,29.542682926829272,-182.625,-41.125,-8221.75
2021-10-23 16:14:23.47,1020.328369140625,31.92,-62.30757878222188,31.55030605070852,-33.48482745035781,-5.51309814453125,-2.8734863281250003,1.6670288085937501,-103.53658536585367,30.487804878048784,-168.01829268292684,-111.75,-25.875,-43.125
2021-10-23 16:14:23.66,1020.326904296875,31.9,-56.70515063173977,11.885126820994627,-34.66644818783445,4.6673217773437505,-6.860717773437501,7.4367309570312505,89.29878048780489,-1.9207317073170733,-230.15243902439028,-85.875,20.125,-37.375
2021-10-23 16:14:23.85,1020.35205078125,31.9,-53.73319510837361,17.04982803736351,-33.35676376902111,7.0419555664062505,-9.39505615234375,7.8614135742187505,64.02439024390245,285.4268292682927,144.39024390243904,-188.25,48.75,10.125
2021-10-23 16:14:24.04,1020.335205078125,31.87,-41.32189571423126,35.68524221104546,-15.066549414695912,-4.207348632812501,0.14475097656250002,6.0370727539062505,-56.09756097560976,74.93902439024392,280.51829268292687,-226.5,47.75,11.875
2021-10-23 16:14:24.22,1020.36572265625,31.87,-40.76638950338823,37.4727943739015,-8.16054739830765,-7.49893798828125,-1.0419677734375001,8.529541015625,-106.89024390243904,-34.51219512195122,36.524390243902445,-209.75,32757.0,-32766.125
2021-10-23 16:14:24.41,1020.328125,31.89,-53.7060595267735,30.99033163966993,-11.97642387231992,-7.35478515625,-2.96380615234375,8.07315673828125,-314.69512195121956,-109.08536585365854,-88.35365853658537,-141.625,-64.125,-95.125
2021-10-23 16:14:24.59,1020.31396484375,31.87,-58.58494931101607,20.716702049259837,-27.91750038691671,-1.8781738281250002,-5.633923339843751,1.9822509765625,31.52439024390244,11.341463414634147,-185.7317073170732,-76.625,-32.875,-101.75
2021-10-23 16:14:24.78,1020.31396484375,31.87,-70.00040214294678,7.346939701209516,-27.686303359746738,3.9513427734375,-6.671704101562501,4.228283691406251,-42.6829268292683,-44.268292682926834,-141.52439024390245,-68.0,16395.875,-64.0
2021-10-23 16:14:24.97,1020.358642578125,31.87,-52.27295959869891,5.328329419139376,-36.284040663548204,7.31351318359375,-9.56851806640625,11.652453613281251,186.6768292682927,438.14024390243907,26.89024390243903,-196.875,78.875,8209.5
2021-10-23 16:14:25.16,1020.357177734375,31.85,-48.68594901779625,19.7500941724459,-26.03073523364382,-4.500439453125001,-2.44521484375,5.6961303710937505,-30.670731707317074,98.96341463414635,132.95731707317074,-219.375,76.25,27.0
2021-10-23 16:14:25.34,1020.362060546875,31.84,-45.69348488649838,15.156842881558747,-15.294798148503201,-5.9467529296875,-2.38360595703125,6.9283081054687505,-215.33536585365854,-99.57317073170732,63.14024390243903,-169.0,-16405.0,32752.625
2021-10-23 16:14:25.53,1020.3095703125,31.84,-61.75301444446244,8.30477222754426,-21.776602239226058,-2.72933349609375,-8.3919677734375,5.32408447265625,-324.4817073170732,-124.17682926829269,-127.50000000000001,-81.25,-32.0,-180.25
2021-10-23 16:14:25.72,1020.33056640625,31.85,-70.02235555162626,6.039169721605256,-33.510989483445314,0.12381591796875001,-7.521069335937501,-3.1546142578125003,2.9268292682926833,14.847560975609758,-64.75609756097562,-58.25,-19.875,-164.625
2021-10-23 16:14:25.91,1020.334716796875,31.86,-65.01126073886057,-1.6532840640741078,-40.15130760873303,5.415600585937501,-9.177331542968751,1.47442626953125,170.4878048780488,116.4329268292683,-44.35975609756098,-75.5,24584.0,-8228.75
2021-10-23 16:14:26.10,1020.357666015625,31.84,-51.242910123288965,2.0056965134813884,-47.48626872832351,4.602124023437501,-8.4182861328125,10.438220214843751,261.5243902439025,389.0853658536586,2.5609756097560976,-166.0,81.625,29.75
2021-10-23 16:14:26.30,1020.34765625,31.83,-45.38228342843283,6.622903539750586,-37.151494741537604,-1.50911865234375,-0.49825439453125003,9.21082763671875,-12.042682926829269,61.09756097560976,48.84146341463415,-189.0,89.25,33.625
2021-10-23 16:14:26.48,1020.328369140625,31.85,-37.162829561720976,20.400011115916236,-22.270826850035654,-4.92691650390625,0.32239990234375004,6.692639160156251,-35.76219512195122,45.94512195121952,161.21951219512198,-178.75,45.875,26.875
2021-10-23 16:14:26.67,1020.332275390625,31.86,-41.89698076657309,21.625878781674786,-16.93716479774225,-4.93289794921875,-0.8942260742187501,12.078332519531251,-349.75609756097566,-112.37804878048782,51.82926829268293,-150.375,-47.375,-8252.0
2021-10-23 16:14:26.87,1020.3251953125,31.86,-58.69084205738211,20.40020804311167,-25.77208420969748,-3.050537109375,-7.06468505859375,1.6221679687500001,-188.78048780487808,-20.243902439024392,-39.11585365853659,-123.5,-45.0,-137.5
2021-10-23 16:14:27.06,1020.33154296875,31.85,-72.50261995344692,13.89991797929796,-38.544057050968696,0.40853271484375003,-9.526049804687501,-1.4720336914062502,-83.32317073170732,47.28658536585366,-83.90243902439025,-90.375,-27.125,-137.125
2021-10-23 16:14:27.25,1020.34619140625,31.84,-68.00575870896247,7.932153440704156,-50.74981322635758,3.74019775390625,-8.268151855468751,0.7632324218750001,316.219512195122,227.01219512195124,-52.13414634146342,-95.5,32767.75,-31.125
2021-10-23 16:14:27.44,1020.356201171875,31.82,-58.83588907514115,4.6807020015865595,-46.80955064663981,3.00328369140625,-7.64847412109375,8.6814697265625,156.70731707317074,154.14634146341464,-4.603658536585367,-150.125,64.625,22.5
2021-10-23 16:14:27.62,1020.329345703125,31.8,-54.68248137439223,10.655081538448403,-42.54355051132268,-3.01943359375,-4.44720458984375,8.5235595703125,38.90243902439025,160.88414634146343,-3.2012195121951224,-198.375,106.25,30.375
2021-10-23 16:14:27.81,1020.313232421875,31.8,-52.08246896734813,19.80965250096426,-31.38665159860389,-5.0561157226562505,-1.7585449218750002,7.0778442382812505,-66.64634146341464,58.62804878048781,59.75609756097562,-198.625,102.5,27.125
2021-10-23 16:14:28.00,1020.331787109375,31.79,-42.88156083967573,20.9996072431946,-17.252422829396217,-5.104565429687501,0.4581787109375,5.35758056640625,-128.0487804878049,-132.6219512195122,174.14634146341464,-122.125,-32764.5,32748.0
2021-10-23 16:14:28.19,1020.34423828125,31.81,-68.61523947407527,9.338358200807884,-13.105520497901667,2.29986572265625,-9.44888916015625,6.80150146484375,-529.3902439024391,-210.39634146341464,31.737804878048784,-108.625,-42.75,-149.375
2021-10-23 16:14:28.37,1020.317138671875,31.81,-75.39783173393215,7.412729741102156,-21.99805488977766,1.5013427734375,-10.2414306640625,-0.48629150390625003,-37.743902439024396,2.439024390243903,39.176829268292686,-110.5,-40.5,-163.625
2021-10-23 16:14:28.57,1020.300048828125,31.82,-75.9006088885373,0.53914774434148,-25.919794872752245,-0.09869384765625001,-8.604907226562501,-0.13577880859375002,98.26219512195122,38.9329268292683,-29.87804878048781,-92.875,-16406.125,-76.0
2021-10-23 16:14:28.75,1020.314697265625,31.83,-44.89716875050126,-14.543007229121681,-31.6516357205068,4.17205810546875,-6.778173828125,10.163671875,415.6707317073171,227.37804878048783,-170.57926829268294,-140.875,126.875,16389.5
2021-10-23 16:14:28.94,1020.338623046875,31.79,-26.29235579193107,0.12075437485425203,-46.30599247529462,-2.2741455078125004,3.0050781250000003,9.83768310546875,103.50609756097562,131.40243902439025,-45.518292682926834,-196.75,162.5,-24577.625
2021-10-23 16:14:29.14,1020.2744140625,31.76,-22.042439196117734,13.420856992350103,-36.89597615962955,-6.881054687500001,3.3526000976562504,3.3825073242187504,47.835365853658544,73.10975609756098,14.573170731707318,-207.25,184.875,-24.5
2021-10-23 16:14:29.32,1020.306640625,31.77,-17.560434584566888,23.313267332169968,-30.38996024105716,-6.555065917968751,4.648779296875,2.93748779296875,-48.44512195121952,-8.963414634146343,94.17682926829269,-141.25,16475.5,-32766.875
2021-10-23 16:14:29.50,1020.297119140625,31.77,-56.21067882193516,10.776445358689063,-7.888036956776389,5.10037841796875,-8.892016601562501,14.442199707031252,-801.4939024390245,-207.65243902439028,343.2317073170732,-138.125,-50.625,-139.0
2021-10-23 16:14:29.70,1020.294189453125,31.78,-63.68554933631424,15.27828888264004,-19.88848034449415,-2.01036376953125,-8.299853515625001,1.54560546875,-6.158536585365854,126.03658536585367,24.664634146341466,-123.875,-45.375,-76.5
2021-10-23 16:14:29.89,1020.310546875,31.76,-30.92642830635445,6.216163977164863,-32.42568318322113,0.42348632812500003,-5.427563476562501,8.1287841796875,513.5975609756098,-5.853658536585367,-177.34756097560978,-115.875,124.25,-32765.25
2021-10-23 16:14:30.08,1020.31982421875,31.76,-16.67705568701884,8.250451507715955,-35.58783048003266,-2.2005737304687503,3.20186767578125,7.0389648437500005,224.78658536585368,128.56707317073173,-239.75609756097563,-205.375,195.875,-40.375
2021-10-23 16:14:30.27,1020.291015625,31.76,-12.571734318045385,25.919314569424124,-34.00835243329277,-7.45946044921875,4.7989135742187505,2.51280517578125,-97.77439024390245,115.64024390243904,57.53048780487806,-200.125,162.125,-24579.5
2021-10-23 16:14:30.46,1020.29345703125,31.77,-25.39007629674668,10.640990391143413,-27.412455491713555,-3.7934326171875004,2.8555419921875003,6.5305419921875005,-454.39024390243907,-197.7439024390244,97.13414634146342,-138.25,-24581.75,32751.75
2021-10-23 16:14:30.65,1020.310791015625,31.78,-74.2446810191895,-2.8919924429180055,-42.87713795036914,1.1520263671875002,-10.523156738281251,6.324780273437501,-668.7804878048781,-1.1585365853658538,-73.75,-101.375,-32758.75,-204.125
2021-10-23 16:14:30.84,1020.329833984375,31.78,-100.13105591048746,-9.487334806380918,-41.82025365180358,2.4942626953125,-5.0184326171875,-7.452880859375001,-141.3719512195122,-8.567073170731708,-110.03048780487806,-87.25,24584.5,-191.875
2021-10-23 16:14:31.03,1020.31591796875,31.76,-63.58486486836302,-14.376784703153863,-45.29748365951171,0.58438720703125,-6.172253417968751,-0.5281616210937501,581.6463414634147,157.0426829268293,69.90853658536587,-123.625,-32763.75,32762.125
2021-10-23 16:14:31.21,1020.3173828125,31.77,-52.914511555496595,-11.428914380796272,-41.33375101924361,0.5921630859375,-5.394665527343751,8.7891357421875,148.9939024390244,108.04878048780489,3.3231707317073176,-160.25,31.375,28.875
2021-10-23 16:14:31.40,1020.345458984375,31.76,-47.650390419577576,-12.125126602148026,-32.81808464873101,-1.2919921875,-1.01864013671875,7.506713867187501,-33.29268292682927,-49.63414634146342,-64.45121951219512,-143.125,19.625,38.875
2021-10-23 16:14:31.60,1020.33349609375,31.73,-36.58077459408338,-1.0409776366066703,-24.878868117843616,-3.5272583007812504,-4.24144287109375,10.424462890625001,154.20731707317074,89.1158536585366,69.23780487804879,-166.25,32.75,50.5
2021-10-23 16:14:31.79,1020.321044921875,31.72,-29.961266906498174,1.1351515129518015,-16.79227671642413,-1.5970458984375002,-1.4780151367187502,9.89630126953125,-0.27439024390243905,0.5487804878048781,-0.030487804878048783,-165.375,31.125,49.25
2021-10-23 16:14:31.98,1020.307861328125,31.73,-24.07926220777422,2.7803716346827287,-9.957032899965002,-1.54859619140625,-1.3051513671875001,9.872973632812501,0.4573170731707317,-0.30487804878048785,0.0,-166.625,31.875,48.25
2021-10-23 16:14:32.17,1020.337890625,31.75,-19.20514008256004,4.02400712838655,-4.311070826593331,-1.5659423828125,-1.3458251953125,9.87955322265625,0.15243902439024393,-0.1829268292682927,-0.06097560975609757,-166.25,33.375,53.375
2021-10-23 16:14:32.36,1020.30517578125,31.75,-15.450546259538848,4.9272442708111805,0.09266280201951918,-1.5420166015625,-1.3302734375,9.893310546875,-0.09146341463414635,-0.030487804878048783,0.030487804878048783,-166.375,33.75,54.25
2021-10-23 16:14:32.54,1020.321533203125,31.76,-12.888066289112752,5.676460643842366,3.0918660155911883,-1.5503906250000001,-1.31890869140625,9.87835693359375,-0.06097560975609757,-0.030487804878048783,0.06097560975609757,-169.875,30.125,48.5
2021-10-23 16:14:32.73,1020.318115234375,31.77,-10.963892370638524,6.235518122449669,5.532233468525237,-1.547998046875,-1.32967529296875,9.893310546875,-0.06097560975609757,-0.06097560975609757,0.030487804878048783,-171.75,33.0,52.5
2021-10-23 16:14:32.92,1020.306396484375,31.78,-9.627935675571724,6.6759134286699915,7.414706711109391,-1.54261474609375,-1.3374511718750002,9.896899414062501,-0.06097560975609757,-0.06097560975609757,0.0,-165.75,32.875,49.5
2021-10-23 16:14:33.11,1020.295654296875,31.8,-8.710556542465273,7.062551119419112,8.76015851564344,-1.5563720703125001,-1.3099365234375,9.89630126953125,-0.06097560975609757,-0.030487804878048783,0.0,-168.875,32.375,50.25
2021-10-23 16:14:33.31,1020.313720703125,31.81,-7.752376735603722,7.290648951760523,10.603848635858746,-1.5641479492187502,-1.31531982421875,9.889123535156251,-0.09146341463414635,-0.06097560975609757,0.0,-160.875,42.375,55.625
2021-10-23 16:14:33.49,1020.33154296875,31.81,0.10643584778419328,4.96031935420272,15.3138188899897,-0.6328369140625001,1.9655029296875002,11.09857177734375,57.835365853658544,-25.27439024390244,17.469512195121954,-132.0,60.125,46.875
2021-10-23 16:14:33.68,1020.323974609375,31.82,-0.0024034438608970575,0.9868243907828395,11.765941082499365,0.7273437500000001,0.31522216796875,10.43702392578125,-18.719512195121954,-33.44512195121951,-154.359756097561,-100.875,67.125,24.125
2021-10-23 16:14:33.88,1020.325439453125,31.82,-0.9143151376183567,-4.947484859406991,13.547718777429761,1.7017211914062502,-1.5659423828125,4.1469360351562505,34.78658536585366,-11.158536585365855,-57.40853658536586,-89.125,65.375,41.875
2021-10-23 16:14:34.07,1020.30126953125,31.78,-7.364144985880432,-2.0191374672243776,16.381909951733977,-0.20755615234375002,-3.4566772460937503,12.882836914062501,-87.22560975609757,40.79268292682927,10.30487804878049,-95.0,46.5,49.875
2021-10-23 16:14:34.25,1020.266357421875,31.76,-7.36109355429929,-2.1444032994304507,19.016781414450563,0.18363037109375002,-1.9116699218750002,9.877160644531251,-0.7621951219512195,0.30487804878048785,0.06097560975609757,-94.25,49.5,47.375
2021-10-23 16:14:34.47,1020.317626953125,31.78,-7.55819557165417,-2.1671148672173417,20.991323811560886,0.17764892578125002,-1.9260253906250002,9.9016845703125,-0.15243902439024393,0.0,0.030487804878048783,-95.875,48.5,47.625
2021-10-23 16:14:34.65,1020.295166015625,31.79,-7.755237562271311,-2.2209455083300518,23.043692002007408,0.19320068359375,-1.9415771484375002,9.9112548828125,-0.2134146341463415,-0.030487804878048783,0.06097560975609757,-96.0,53.625,47.25
2021-10-23 16:14:34.83,1020.296630859375,31.78,-8.112883887477432,-2.1372919112399744,24.315243457435436,0.179443359375,-1.9343994140625,9.923815917968751,0.030487804878048783,-0.09146341463414635,0.06097560975609757,-96.25,49.25,46.0
2021-10-23 16:14:35.03,1020.28173828125,31.8,-8.509299990364278,-2.025604657016418,25.216249851219516,0.18243408203125,-1.9415771484375002,9.9112548828125,-0.06097560975609757,-0.030487804878048783,0.0,-98.0,48.5,47.125
2021-10-23 16:14:35.22,1020.29150390625,31.82,-8.818127507199748,-1.9556967379735632,26.134370837617407,0.19200439453125,-1.9439697265625002,9.9184326171875,-0.09146341463414635,0.0,0.0,-97.25,50.0,47.625
2021-10-23 16:14:35.40,1020.317626953125,31.81,-11.525256206389422,-2.3074361967929002,24.8265662152962,0.5084228515625,-2.792138671875,8.022912597656251,-1.7987804878048783,-4.0548780487804885,0.6707317073170732,-109.875,31.5,42.625
2021-10-23 16:14:35.61,1020.31396484375,31.81,-20.876838130413432,10.424289423495509,38.68921744843691,-0.69683837890625,-6.29068603515625,11.662622070312501,-99.72560975609757,173.2317073170732,91.58536585365854,-158.625,32761.875,17.0
2021-10-23 16:14:35.80,1020.30126953125,31.8,-21.848926390182758,12.085319464939943,47.583518757286264,-3.438134765625,-2.48409423828125,6.1022705078125,12.408536585365855,-100.2439024390244,-17.012195121951223,-116.125,8209.25,35.125
2021-10-23 16:14:35.99,1020.309814453125,31.79,-24.586852155383557,8.116787578375328,42.48237666875756,2.93389892578125,-2.3160156250000004,7.6119873046875,-39.54268292682927,28.689024390243905,5.457317073170732,-86.625,16.375,31.625
2021-10-23 16:14:36.17,1020.302978515625,31.77,-24.32168192470159,6.558469098165923,37.689724996053336,0.5802001953125,-2.79991455078125,9.730615234375001,-0.09146341463414635,-0.426829268292683,0.0,-87.375,13.25,28.0
2021-10-23 16:14:36.37,1020.30322265625,31.77,-23.84746721520441,5.145784741801082,33.872171297140994,0.5825927734375,-2.76641845703125,9.71087646484375,0.15243902439024393,-0.06097560975609757,-0.030487804878048783,-85.75,12.25,31.875
2021-10-23 16:14:36.56,1020.29150390625,31.79,-22.999801948100217,3.7281541124846678,31.022624673602696,0.624462890625,-2.7377075195312504,9.708483886718751,-0.06097560975609757,-0.06097560975609757,-0.030487804878048783,-90.125,17.125,33.75
2021-10-23 16:14:36.75,1020.325439453125,31.8,-22.315568411641163,2.5591405589664977,28.006776359626524,0.610107421875,-2.7466796875000004,9.71207275390625,-0.09146341463414635,0.030487804878048783,-0.030487804878048783,-91.25,13.5,30.75
2021-10-23 16:14:36.96,1020.316650390625,31.78,-21.54057234772603,1.512436953043503,26.06695513411889,0.6160888671875,-2.75445556640625,9.69293212890625,-0.06097560975609757,-0.06097560975609757,0.0,-87.625,15.25,35.625
2021-10-23 16:14:37.14,1020.29931640625,31.75,-20.79816848372074,0.6290055165635017,24.275046328425844,0.6232666015625,-2.7209594726562503,9.69891357421875,-0.030487804878048783,0.0,0.030487804878048783,-88.75,15.0,34.5
2021-10-23 16:14:37.32,1020.31298828125,31.74,-20.264116281177643,-0.028646174512341572,22.148222634191068,0.5802001953125,-2.7383056640625,9.71207275390625,0.0,-0.06097560975609757,0.0,-88.25,11.25,30.25
2021-10-23 16:14:37.53,1020.301513671875,31.77,-19.694233895396405,-0.6049693817081899,20.656252273258218,0.5802001953125,-2.739501953125,9.71207275390625,-0.09146341463414635,-0.09146341463414635,0.0,-90.875,13.0,33.5
2021-10-23 16:14:37.71,1020.356689453125,31.79,-19.023150430173363,-1.169729914044698,19.8323109482665,0.6160888671875,-2.7359130859375003,9.724633789062501,-0.12195121951219513,-0.030487804878048783,0.0,-88.875,17.25,31.0
2021-10-23 16:14:37.90,1020.302978515625,31.8,-18.55622783566934,-1.5941589949822998,18.767867721697904,0.6148925781250001,-2.73232421875,9.726428222656251,-0.09146341463414635,0.0,-0.030487804878048783,-87.5,13.75,30.75
2021-10-23 16:14:38.12,1020.339111328125,31.79,-18.196970637339938,-1.9327270732628947,17.845864923358707,0.6148925781250001,-2.74608154296875,9.72822265625,0.0,-0.06097560975609757,0.06097560975609757,-89.25,12.5,34.375
2021-10-23 16:14:38.30,1020.306396484375,31.81,-17.73403610079019,-2.245543392553458,17.53621959719963,0.610107421875,-2.73531494140625,9.71685791015625,-0.030487804878048783,-0.06097560975609757,-0.030487804878048783,-89.5,16.75,34.25
2021-10-23 16:14:38.48,1020.328857421875,31.82,-17.51938473536727,-2.4408975460894267,16.67067695818613,0.5993408203125,-2.74129638671875,9.716259765625,-0.12195121951219513,-0.06097560975609757,0.0,-90.875,12.375,32.75
2021-10-23 16:14:38.68,1020.307861328125,31.83,-17.2829957611243,-2.6141741596426717,16.000140613293446,0.600537109375,-2.739501953125,9.71207275390625,-0.030487804878048783,-0.06097560975609757,0.0,-86.125,12.625,29.25
2021-10-23 16:14:38.88,1020.3359375,31.83,-17.013430301264844,-4.600897402387113,16.422600358002512,1.2064575195312501,-2.5193847656250004,9.7389892578125,-6.189024390243903,-24.05487804878049,2.5914634146341466,-85.25,15.625,32.75
2021-10-23 16:14:39.06,1020.3154296875,31.86,-16.84496565151858,-4.552569152575359,15.877122276525862,0.7805786132812501,-2.7676147460937504,9.7138671875,0.6402439024390244,-0.39634146341463417,-0.030487804878048783,-84.0,13.125,29.25
2021-10-23 16:14:39.27,1020.3154296875,31.86,-17.411448309074792,0.11464420562680855,28.05744206938413,1.1227172851562501,-3.58946533203125,10.9484375,37.13414634146342,26.158536585365855,23.201219512195124,-117.625,8200.375,35.25
2021-10-23 16:14:39.46,1020.329833984375,31.86,-18.122231040388296,0.005808221752240683,26.799377314909542,-1.45648193359375,-3.3777221679687504,11.227770996093751,-16.219512195121954,-30.945121951219516,-16.219512195121954,-95.375,37.0,21.125
2021-10-23 16:14:39.64,1020.3291015625,31.83,-13.232343468327722,1.8465246891036022,25.526062081511586,0.9462646484375,-0.34572753906250003,5.87437744140625,36.3719512195122,87.50000000000001,-11.76829268292683,-115.625,52.625,44.25
2021-10-23 16:14:39.82,1020.343994140625,31.81,-17.990726075480353,5.288039835189488,26.04449158376668,-2.07735595703125,-2.15391845703125,10.1923828125,-106.79878048780489,29.32926829268293,8.567073170731708,-112.75,49.625,48.625
2021-10-23 16:14:40.02,1020.3359375,31.8,-15.422942647175915,4.167791751228464,26.51574835036255,-0.15970458984375002,-1.38470458984375,9.97525634765625,6.676829268292684,-3.628048780487805,0.6402439024390244,-115.375,43.5,50.625
2021-10-23 16:14:40.21,1020.3037109375,31.8,-15.675068842560306,5.417938481203942,26.680289662282494,-0.8852539062500001,-2.22808837890625,10.982531738281251,-22.500000000000004,21.55487804878049,11.615853658536587,-115.625,43.625,46.25
2021-10-23 16:14:40.39,1020.300537109375,31.81,-16.475457386741198,0.9098436356678172,27.50115268124435,0.25181884765625,-1.378125,8.094689941406251,-43.44512195121952,-66.34146341463415,4.725609756097561,-112.5,43.75,30.125
2021-10-23 16:14:40.61,1020.35009765625,31.81,-10.31712818239988,4.490803158672034,30.720911815299363,0.8523559570312501,-4.29228515625,19.069445800781253,102.89634146341464,75.27439024390245,68.14024390243902,-118.875,59.5,53.25
2021-10-23 16:14:40.79,1020.308349609375,31.81,-9.013530272197313,4.418710287398926,30.792141267953614,-0.73870849609375,-0.85654296875,10.518969726562501,1.7682926829268295,0.4573170731707317,0.15243902439024393,-124.0,63.0,51.375
2021-10-23 16:14:40.97,1020.3447265625,31.81,-6.712599786918027,5.885989280943513,28.94920237387353,-0.7189697265625,-0.26856689453125004,10.51956787109375,26.158536585365855,27.134146341463417,0.9451219512195123,-157.0,52.875,51.125
2021-10-23 16:14:41.18,1020.305908203125,31.8,-6.006097611591235,17.725549209287642,25.854624343831897,-4.553076171875,-0.3768310546875,9.474609375,16.676829268292686,152.6219512195122,-7.01219512195122,-213.875,62.0,45.0
2021-10-23 16:14:41.37,1020.328369140625,31.79,-8.030450607356743,26.96194027545904,20.4967877122156,-5.15660400390625,-0.94925537109375,7.835095214843751,4.51219512195122,121.25000000000001,-46.00609756097561,-259.375,65.0,20.0
2021-10-23 16:14:41.56,1020.30810546875,31.79,-7.257014265474841,31.26164672147807,20.792778423651274,-7.2632690429687505,-0.48449707031250006,3.7384033203125004,11.79878048780488,-61.25000000000001,-7.0426829268292686,-273.0,89.75,21.375
2021-10-23 16:14:41.78,1020.349609375,31.78,-11.869160842743412,37.62131087316818,16.928755907972675,-9.01702880859375,-0.1782470703125,4.031494140625,-57.50000000000001,-12.256097560975611,-52.896341463414636,-277.875,68.75,14.25
2021-10-23 16:14:41.97,1020.33837890625,31.79,-8.290090439702169,43.729612517108215,19.67536551225307,-8.21671142578125,-0.33555908203125,4.036877441406251,25.853658536585368,8.932926829268293,20.457317073170735,-274.375,78.625,13.625
2021-10-23 16:14:42.15,1020.3095703125,31.81,-5.501982989222859,48.84212679234708,21.594862007216385,-8.1670654296875,0.029907226562500003,4.11224365234375,15.914634146341465,16.06707317073171,13.109756097560977,-286.875,74.375,11.625
2021-10-23 16:14:42.34,1020.338623046875,31.79,-8.28851602872569,47.93964421204748,21.69024756061484,-8.701806640625001,-0.67530517578125,4.9059814453125,-55.396341463414636,-75.1829268292683,9.939024390243903,-265.25,45.625,26.25
2021-10-23 16:14:42.53,1020.34326171875,31.79,-11.687447239661356,45.239749356286765,20.135620898166742,-7.51688232421875,-1.7166748046875002,7.135266113281251,-34.78658536585366,-52.01219512195122,-0.7621951219512195,-243.25,30.875,35.125
2021-10-23 16:14:42.72,1020.338623046875,31.79,-13.477191477233475,41.29532094412616,18.661789546733985,-6.163879394531251,-2.24603271484375,7.201660156250001,-0.9451219512195123,-58.8719512195122,-9.786585365853659,-215.75,26.25,42.5
2021-10-23 16:14:42.92,1020.343017578125,31.8,-11.360073055801852,35.68821634350202,19.346384658280343,-4.7540527343750005,-2.40155029296875,9.05889892578125,38.170731707317074,-49.78658536585366,-8.048780487804878,-194.25,39.875,52.125
2021-10-23 16:14:43.11,1020.30517578125,31.8,-10.162100447492676,32.04528398783225,20.468392925500734,-3.7707031250000003,-1.7794799804687502,9.739587402343751,6.463414634146342,-6.676829268292684,2.0121951219512195,-189.0,47.25,54.375
2021-10-23 16:14:43.29,1020.37109375,31.8,-9.158746898384432,29.587351233156653,21.592389343786373,-3.34542236328125,-1.2028686523437502,9.1360595703125,-2.073170731707317,4.329268292682928,5.670731707317073,-185.125,49.625,52.75
2021-10-23 16:14:43.49,1020.356689453125,31.81,-9.02502547640453,27.92863206873707,22.848165553076342,-2.9895263671875,-1.3721435546875,9.57449951171875,-13.536585365853659,17.5,23.658536585365855,-185.75,46.75,54.75
2021-10-23 16:14:43.68,1020.33935546875,31.81,-8.652375913732582,26.397047636561147,23.260972832290577,-3.1791381835937504,-0.9558349609375001,9.099572753906251,-6.920731707317074,5.579268292682928,5.975609756097562,-182.25,47.0,56.625
2021-10-23 16:14:43.87,1020.343505859375,31.81,-8.62366796057591,25.102277321909718,23.084129425491522,-3.2341674804687504,-1.1137451171875001,9.31610107421875,-3.4756097560975614,4.237804878048781,1.128048780487805,-178.875,46.375,53.5
2021-10-23 16:14:44.05,1020.334228515625,31.81,-8.515817669288806,23.362019795411747,22.99485866830271,-3.055322265625,-1.24114990234375,9.6073974609375,-1.0670731707317074,-3.26219512195122,0.0,-176.75,48.5,54.0
2021-10-23 16:14:44.24,1020.3369140625,31.81,-8.084131619124813,21.60296095270629,23.05540131935753,-2.8393920898437504,-1.03778076171875,9.57569580078125,-0.1829268292682927,-6.158536585365854,-0.7926829268292683,-177.5,51.0,55.625
2021-10-23 16:14:44.43,1020.338623046875,31.82,-7.0502071505272115,19.46951961970001,23.718323681356118,-2.265771484375,-0.7363159179687501,9.7198486328125,-0.27439024390243905,-4.146341463414634,-1.6158536585365855,-167.375,57.25,59.0
2021-10-23 16:14:44.61,1020.36328125,31.82,-6.602306411430657,18.659249207401583,23.86600999988329,-2.26995849609375,-0.7907470703125,9.8514404296875,-1.402439024390244,11.615853658536587,3.26219512195122,-170.625,55.5,54.25
2021-10-23 16:14:44.82,1020.3388671875,31.82,-6.153303187431474,17.65635699214896,24.076184043726244,-2.32139892578125,-0.5538818359375001,9.49793701171875,-5.426829268292684,1.0975609756097562,0.426829268292683,-169.0,56.875,57.5
2021-10-23 16:14:45.00,1020.341064453125,31.83,-5.5818946390870545,16.755574620788213,24.375136039168485,-2.074365234375,-0.5221801757812501,9.697717285156251,-2.8963414634146343,6.189024390243903,2.408536585365854,-167.0,58.375,58.0
2021-10-23 16:14:45.18,1020.33154296875,31.83,-5.014257319912251,15.979927258506995,24.63608137711632,-2.00079345703125,-0.5132080078125001,9.63311767578125,-0.24390243902439027,5.975609756097562,3.5670731707317076,-166.375,60.125,54.25
2021-10-23 16:14:45.39,1020.35595703125,31.84,-3.770143218870188,15.048489164854965,25.32708526460234,-2.0755615234375,-0.189013671875,9.802392578125001,3.689024390243903,0.5182926829268293,0.701219512195122,-164.375,68.625,56.125
2021-10-23 16:14:45.57,1020.38427734375,31.84,-2.8800681482791335,13.99695372563332,26.073246432857754,-1.8422851562500002,-0.16269531250000002,9.895703125,0.15243902439024393,0.7926829268292683,1.3414634146341464,-158.75,71.125,57.625
2021-10-23 16:14:45.75,1020.3515625,31.85,-1.318182791250274,11.713539440847455,25.963164706907506,-1.7077026367187502,-0.35589599609375,10.20374755859375,27.83536585365854,-25.243902439024392,-10.792682926829269,-156.375,71.125,53.75
2021-10-23 16:14:45.97,1020.34716796875,31.85,1.3822965037783994,8.654888549841173,26.826234425396816,-1.23157958984375,0.70880126953125,10.3778076171875,25.365853658536587,-36.79878048780488,-6.310975609756098,-148.625,79.625,57.125
2021-10-23 16:14:46.15,1020.332275390625,31.86,1.9559631016905963,8.241324419466522,27.49965234367249,-1.25191650390625,0.46954345703125006,9.978845214843751,1.0975609756097562,0.7317073170731708,1.829268292682927,-147.0,79.5,54.25
2021-10-23 16:14:46.33,1020.34765625,31.87,1.634829583733661,8.623408511924993,27.11295594184469,-1.28541259765625,0.6178833007812501,9.938769531250001,-12.652439024390246,11.646341463414634,-9.573170731707318,-151.125,75.5,58.625
2021-10-23 16:14:46.55,1020.362548828125,31.87,1.271520400527636,8.984602264566492,26.767637310747435,-1.52227783203125,0.41929931640625,9.9543212890625,-10.27439024390244,7.25609756097561,-9.146341463414634,-154.625,76.375,59.875
2021-10-23 16:14:46.73,1020.334228515625,31.88,-0.21293419821507034,8.394082025063598,26.410196405820464,-0.87568359375,-0.32598876953125,9.636706542968751,-16.646341463414636,5.487804878048781,-9.634146341463415,-145.0,72.375,53.125
2021-10-23 16:14:46.91,1020.388427734375,31.87,-0.6764648137309872,-4.835715984749489,23.08617180305349,0.61907958984375,0.47133789062500003,12.633410644531251,-3.1707317073170733,-154.26829268292684,-79.84756097560977,-71.75,105.625,32759.0
2021-10-23 16:14:47.10,1020.332275390625,31.86,4.41469198254077,-17.249494467032957,35.169036070104895,4.438232421875,1.4606689453125001,5.6452880859375005,72.19512195121952,-118.07926829268294,9.908536585365855,-76.5,8243.5,-45.25
2021-10-23 16:14:47.30,1020.33544921875,31.85,-14.471525515934268,-11.463587927803687,60.98647615972748,0.8260375976562501,-8.4302490234375,5.3270751953125,-68.59756097560977,92.10365853658537,214.20731707317074,-75.25,8219.75,-24.5
2021-10-23 16:14:47.48,1020.349853515625,31.83,-25.74211955327498,-6.735109135516738,71.8340124759513,4.9538330078125,-2.57979736328125,7.13048095703125,-179.359756097561,119.96951219512196,116.37195121951221,-74.875,8220.625,-30.375
2021-10-23 16:14:47.66,1020.344970703125,31.83,-6.678173696726288,-32.19106875124206,56.35720817614848,4.7091918945312505,-2.43145751953125,5.620166015625,245.97560975609758,-228.56707317073173,-277.3475609756098,-71.875,30.875,-24.625
2021-10-23 16:14:47.87,1020.33056640625,31.84,12.052041701139288,-44.62997173398853,44.468243563794815,5.10277099609375,-3.50093994140625,10.37601318359375,276.1280487804878,-268.8414634146342,-242.74390243902442,-65.875,68.875,-20.125
2021-10-23 16:14:48.05,1020.3623046875,31.86,4.886230033983081,-41.695044861503796,52.55999860550443,6.43065185546875,-0.5987426757812501,10.546484375,-14.115853658536587,-25.365853658536587,30.762195121951223,-56.375,57.625,-26.5
2021-10-23 16:14:48.24,1020.33642578125,31.89,1.4747055873376351,-38.856874869988154,56.70673281920846,7.129882812500001,-2.01455078125,9.4949462890625,13.01829268292683,-27.59146341463415,-29.481707317073173,-59.375,61.375,-62.25
2021-10-23 16:14:48.44,1020.344482421875,31.89,-3.05687380005567,-45.4132075567534,61.56188544756251,7.543798828125,-2.0133544921875,3.5344360351562503,2.682926829268293,-116.4939024390244,-24.573170731707318,-65.75,76.75,-111.75
2021-10-23 16:14:48.63,1020.330322265625,31.9,3.28583590797892,-55.380606653442904,58.524509085112854,9.091796875,-0.17764892578125002,0.81287841796875,43.963414634146346,-142.22560975609758,-87.59146341463415,-93.625,104.0,-159.5
2021-10-23 16:14:48.81,1020.339599609375,31.9,24.39861765315515,-62.8524407280672,39.73999153344227,6.97496337890625,5.04056396484375,-3.9585205078125,-46.06707317073171,-116.21951219512196,-107.71341463414635,-118.25,121.75,-176.375
2021-10-23 16:14:49.02,1020.3515625,31.9,37.67726474100602,-62.737733753563546,34.495657473650596,6.683666992187501,5.35399169921875,-4.1906005859375,-5.274390243902439,1.5853658536585367,7.957317073170732,-128.375,128.375,-178.5
2021-10-23 16:14:49.21,1020.364990234375,31.89,55.6838478729841,-61.73074200465749,24.996669453053407,4.6493774414062505,7.16995849609375,-5.68656005859375,-17.195121951219512,-20.945121951219512,10.609756097560977,-128.0,135.75,-178.5
2021-10-23 16:14:49.39,1020.404541015625,31.87,72.6782689466544,-61.12036023080233,16.442823818524406,4.830615234375,6.12200927734375,-5.307934570312501,-21.402439024390247,-38.35365853658537,24.878048780487806,-135.125,134.625,-184.125
2021-10-23 16:14:49.61,1020.375,31.87,82.45173579870053,-59.087733014363245,20.131165091713893,6.7578369140625005,5.036376953125,-6.44261474609375,39.390243902439025,82.5609756097561,-7.439024390243903,-120.125,128.25,-187.375
2021-10-23 16:14:49.79,1020.389404296875,31.89,102.23523718566182,-60.355961846915186,7.6325491797256,6.5574584960937505,4.1571044921875,-5.761328125,-14.817073170731708,-75.67073170731707,36.58536585365854,-112.875,121.0,-182.5
2021-10-23 16:14:49.98,1020.380615234375,31.89,113.55622405510137,-54.91354830041562,1.9585835509365042,5.965893554687501,4.42626953125,-5.0680786132812505,-27.103658536585368,-54.29878048780488,-48.35365853658537,-118.0,125.0,-181.75
2021-10-23 16:14:50.17,1020.3701171875,31.89,120.76731648549033,-51.05875460922019,1.0577409718969324,6.76920166015625,4.842578125,-5.3611694335937505,-7.378048780487806,-28.658536585365855,-36.58536585365854,-116.375,122.25,-180.375
2021-10-23 16:14:50.36,1020.36962890625,31.9,126.98500752452047,-50.07954612957853,1.1870465049555332,7.2662597656250005,4.1858154296875005,-5.49156494140625,4.5426829268292686,-3.3841463414634148,-13.414634146341465,-114.5,121.25,-184.375
2021-10-23 16:14:50.55,1020.3720703125,31.9,131.37712604770715,-50.33986578083023,1.9977033060650669,7.5683227539062505,3.8490600585937504,-5.313916015625001,5.76219512195122,11.158536585365855,-6.585365853658537,-110.875,118.125,-182.25
2021-10-23 16:14:50.74,1020.35009765625,31.91,133.8987975549393,-51.158231144501556,3.8062975364941165,6.58616943359375,4.138562011718751,-5.188305664062501,3.5975609756097566,39.87804878048781,14.207317073170733,-89.125,100.875,-167.625
2021-10-23 16:14:50.94,1020.38427734375,31.92,136.58567140766192,-79.89737460387212,-5.6412697091527555,9.971667480468751,-0.020336914062500003,-1.4032470703125002,53.10975609756098,243.0487804878049,248.62804878048783,-78.5,24593.0,-79.375
2021-10-23 16:14:51.12,1020.367431640625,31.91,-34.078465661189526,-68.35054309976422,169.35881241710132,2.2215087890625003,-4.93170166015625,3.9046875,61.737804878048784,281.82926829268297,208.44512195121953,-158.25,-15.875,-25.75
2021-10-23 16:14:51.31,1020.390380859375,31.91,-25.895796225121554,-51.35726063003863,176.35189236793144,-2.3620727539062503,-6.10526123046875,8.296862792968751,27.865853658536587,97.59146341463415,67.19512195121952,-202.625,-8202.75,-16389.5
2021-10-23 16:14:51.51,1020.381591796875,31.89,-22.339529071659058,-54.09316153304235,173.99723555881485,-2.7089965820312503,-3.62655029296875,7.59464111328125,110.1219512195122,-38.10975609756098,-47.86585365853659,-139.875,36.875,23.125
2021-10-23 16:14:51.70,1020.365234375,31.92,-25.679156337984047,-67.63185881248796,179.93515178566204,10.48966064453125,2.9620117187500004,12.616662597656251,137.59146341463415,-186.52439024390245,92.16463414634147,-90.125,67.875,31.875
2021-10-23 16:14:51.88,1020.40380859375,31.89,-25.055187753575765,-68.92766000200625,173.63892964927123,4.29766845703125,0.09749755859375,9.2724365234375,-1.25,14.26829268292683,-10.731707317073171,-92.25,65.625,34.125
2021-10-23 16:14:52.09,1020.363037109375,31.89,-22.774281614125577,-69.74656753204233,167.0061982337206,4.09130859375,1.1615966796875001,10.02789306640625,26.981707317073173,-10.182926829268293,8.201219512195122,-98.625,83.875,30.0
2021-10-23 16:14:52.28,1020.3955078125,31.92,-14.614513705721254,-65.89703210700377,156.59408045634862,3.8460693359375004,2.85614013671875,8.189196777343751,16.585365853658537,103.81097560975611,58.59756097560976,-130.625,71.0,24.5
2021-10-23 16:14:52.46,1020.33984375,31.95,-11.659320690597683,-69.4522228204908,148.28549856886247,2.87408447265625,1.00667724609375,9.118115234375,-37.10365853658537,-66.85975609756098,-9.725609756097562,-130.25,67.875,17.0
2021-10-23 16:14:52.67,1020.32421875,31.95,-4.063469109199673,-73.48005971256521,135.28563939147037,3.3759277343750003,2.0001953125000003,10.151110839843751,-34.420731707317074,-97.01219512195122,-12.682926829268293,-140.0,77.875,22.75
2021-10-23 16:14:52.85,1020.36083984375,31.96,7.343980977752184,-74.4989891701814,119.42367784727286,0.7177734375,2.38121337890625,8.52056884765625,-20.79268292682927,-99.66463414634147,-1.2804878048780488,-158.75,84.875,22.25
2021-10-23 16:14:53.04,1020.369384765625,31.96,35.93404449572444,-76.15848365027188,87.37705530501705,0.208154296875,4.3915771484375,6.794921875000001,7.073170731707318,-154.2378048780488,9.878048780487806,-141.375,83.125,21.375
2021-10-23 16:14:53.24,1020.354736328125,31.95,43.538232924421216,-70.6485337447552,76.18916076440298,1.50672607421875,5.050732421875001,7.66282958984375,29.725609756097562,-14.51219512195122,15.213414634146343,-128.625,85.125,23.5
2021-10-23 16:14:53.42,1020.365234375,31.95,29.603936753850764,-58.69134163981943,88.40773303430797,2.6551635742187503,3.7707031250000003,10.008752441406251,69.02439024390245,194.08536585365854,18.01829268292683,-132.625,84.75,23.75
2021-10-23 16:14:53.60,1020.33935546875,31.95,23.570705549933752,-46.796615926911215,91.02812907903966,2.5983398437500003,2.82982177734375,9.5762939453125,64.87804878048782,208.53658536585368,26.189024390243905,-138.5,94.375,27.875
2021-10-23 16:14:53.80,1020.333251953125,31.95,23.06316470851054,-37.50966590420938,85.13534627880752,1.73402099609375,2.9572265625000003,9.09478759765625,46.79878048780488,121.37195121951221,9.115853658536587,-125.75,90.375,33.625
2021-10-23 16:14:53.98,1020.350341796875,31.95,15.810622978973957,-36.13722810275143,75.42262740217362,4.7151733398437505,1.17415771484375,11.93717041015625,-121.76829268292684,6.615853658536586,-13.170731707317074,-128.5,60.25,49.375
2021-10-23 16:14:54.18,1020.36181640625,32.08,13.508227652429149,-29.436555950925253,67.03543829135913,0.45758056640625006,0.77998046875,10.151708984375,-10.51829268292683,36.61585365853659,1.25,-143.625,59.5,54.875
2021-10-23 16:14:54.37,1020.39599609375,32.02,12.061038098516633,-24.885822236902552,58.562795124458916,0.75665283203125,0.8679077148437501,10.00516357421875,0.1829268292682927,-0.39634146341463417,0.030487804878048783,-143.375,58.125,52.625
2021-10-23 16:14:54.56,1020.350830078125,31.98,10.199142334832564,-20.547201426037123,51.41159829782703,0.748876953125,0.8499633789062501,10.004565429687501,-0.09146341463414635,-0.030487804878048783,0.0,-141.375,61.125,55.0
2021-10-23 16:14:54.74,1020.37548828125,31.95,8.596937141557826,-16.893962835510653,45.10172318434657,0.7405029296875001,0.85953369140625,10.011743164062501,-0.030487804878048783,-0.09146341463414635,0.0,-141.875,56.5,51.625
2021-10-23 16:14:54.93,1020.34521484375,31.94,7.1554789344180785,-13.861226999994074,40.13507385090428,0.7464843750000001,0.8601318359375001,9.984826660156251,-0.06097560975609757,-0.030487804878048783,0.0,-140.625,59.875,52.625
2021-10-23 16:14:55.15,1020.33349609375,31.93,6.110297163469435,-11.516735770992451,36.41774038932836,0.7596435546875,0.8864501953125,9.992602539062501,-0.30487804878048785,-0.2134146341463415,0.12195121951219513,-140.625,64.375,51.0
2021-10-23 16:14:55.33,1020.364501953125,31.92,5.185889652645986,-9.620322928468351,33.024780041140545,0.74110107421875,0.8350097656250001,9.98602294921875,0.1829268292682927,0.09146341463414635,-0.1829268292682927,-144.0,58.75,53.875
2021-10-23 16:14:55.52,1020.398193359375,31.92,4.592830339045595,-8.228273280137854,30.370983287956992,0.7596435546875,0.8661132812500001,10.01533203125,-0.24390243902439027,-0.09146341463414635,0.09146341463414635,-140.75,57.625,50.625
2021-10-23 16:14:55.72,1020.406982421875,31.92,4.186705735239097,-7.1790229697731185,28.286664763785133,0.76263427734375,0.8403930664062501,9.979443359375,-0.06097560975609757,0.09146341463414635,-0.030487804878048783,-142.875,58.5,51.75
2021-10-23 16:14:55.91,1020.382568359375,31.92,3.9230881209345063,-6.396637277935652,26.576976032754178,0.76981201171875,0.8625244140625,10.00396728515625,-0.06097560975609757,-0.15243902439024393,0.0,-142.0,57.125,54.5
2021-10-23 16:14:56.10,1020.37646484375,31.91,3.803633719308882,-5.815974396384734,25.204387378791605,0.76083984375,0.8559448242187501,10.0093505859375,-0.12195121951219513,-0.06097560975609757,0.06097560975609757,-143.25,57.0,51.375
2021-10-23 16:14:56.31,1020.393798828125,31.9,3.796104023729621,-5.392205849273314,24.335160243315865,0.753662109375,0.84158935546875,9.9973876953125,-0.12195121951219513,0.030487804878048783,0.0,-141.25,59.5,53.125
2021-10-23 16:14:56.49,1020.37890625,31.91,3.903992139163581,-5.093793187870977,23.71249265122021,0.753662109375,0.8744873046875,10.013537597656251,-0.06097560975609757,-0.06097560975609757,0.0,-139.625,59.625,49.625
2021-10-23 16:14:56.67,1020.390380859375,31.92,4.017508919001683,-4.8876936314722395,23.21847448249784,0.7704101562500001,0.8792724609375001,10.017724609375001,-0.06097560975609757,0.0,-0.030487804878048783,-141.75,60.75,52.375
2021-10-23 16:14:56.87,1020.40234375,31.92,4.031793056508337,-4.678812897551995,22.549777576907932,0.748876953125,0.8673095703125001,9.99798583984375,-0.06097560975609757,0.030487804878048783,0.06097560975609757,-143.0,57.25,55.0
2021-10-23 16:14:57.07,1020.384033203125,31.94,4.0450391215716035,-4.53763751418148,21.948736632993445,0.7596435546875,0.8619262695312501,10.004565429687501,-0.09146341463414635,-0.06097560975609757,-0.06097560975609757,-142.125,56.125,56.875
2021-10-23 16:14:57.25,1020.390625,31.95,4.182983093115262,-4.488499374372567,21.812129259655404,0.7692138671875001,0.8499633789062501,10.01593017578125,-0.030487804878048783,0.0,-0.030487804878048783,-141.625,61.0,55.375
2021-10-23 16:14:57.45,1020.352294921875,31.96,4.2690684494169036,-4.43529108985342,21.555267648234302,0.765625,0.8613281250000001,10.00037841796875,0.0,-0.06097560975609757,0.0,-142.25,59.25,57.0
2021-10-23 16:14:57.64,1020.3896484375,31.96,4.368871744230084,-4.3823807573672795,21.410714521637395,0.7476806640625,0.863720703125,10.005761718750001,-0.06097560975609757,-0.030487804878048783,0.030487804878048783,-141.625,60.0,57.0
2021-10-23 16:14:57.82,1020.37939453125,31.96,4.538540568867805,-4.388001438400948,21.504294805827648,0.7614379882812501,0.8816650390625,10.0093505859375,-0.09146341463414635,-0.09146341463414635,0.0,-141.375,62.75,52.625
2021-10-23 16:14:58.00,1020.34130859375,31.96,4.573996249649092,-4.349011785666579,21.32473763635281,0.75665283203125,0.8631225585937501,10.01712646484375,-0.030487804878048783,0.06097560975609757,0.030487804878048783,-142.625,59.25,50.375
2021-10-23 16:14:58.21,1020.377197265625,31.97,4.586868278097202,-4.299633261308508,21.107590780336587,0.74110107421875,0.8649169921875001,10.011743164062501,-0.06097560975609757,-0.06097560975609757,0.0,-141.875,58.375,55.0
2021-10-23 16:14:58.39,1020.3623046875,31.98,4.652038156862137,-4.308210705788841,21.023903248775174,0.7692138671875001,0.87568359375,10.0141357421875,-0.06097560975609757,0.0,0.0,-142.875,59.75,51.25
2021-10-23 16:14:58.57,1020.401611328125,31.98,4.626767829061289,-4.273852068469292,20.71538396282912,0.7512695312500001,0.8691040039062501,10.008154296875,-0.12195121951219513,-0.09146341463414635,0.0,-141.625,55.875,52.5
2021-10-23 16:14:58.78,1020.361328125,31.99,4.69794168114149,-4.279865988297174,20.72292385577748,0.75186767578125,0.8679077148437501,10.005761718750001,-0.09146341463414635,-0.06097560975609757,0.0,-141.875,59.625,51.5
2021-10-23 16:14:58.97,1020.361572265625,32.01,4.688260910535522,-4.26484643456826,20.523659141964924,0.7554565429687501,0.8631225585937501,10.01114501953125,-0.06097560975609757,-0.030487804878048783,0.0,-145.25,58.125,54.25
2021-10-23 16:14:59.16,1020.374755859375,32.01,4.760037037129885,-4.287419763884187,20.58541447153467,0.7602416992187501,0.8697021484375,10.01234130859375,-0.12195121951219513,-0.06097560975609757,-0.06097560975609757,-142.375,59.625,46.875
2021-10-23 16:14:59.36,1020.361572265625,32.02,4.827685639946246,-4.306553486095107,20.68461041006818,0.7560546875,0.8673095703125001,10.010546875000001,-0.06097560975609757,-0.09146341463414635,0.06097560975609757,-140.625,60.375,53.0
2021-10-23 16:14:59.54,1020.383544921875,32.03,4.887064581265162,-4.324357389371488,20.841213546691993,0.7548583984375,0.8619262695312501,10.02490234375,-0.06097560975609757,-0.09146341463414635,0.030487804878048783,-143.875,62.75,52.0
2021-10-23 16:14:59.72,1020.376220703125,32.04,4.816775919802302,-4.306640660561566,20.524371923890566,0.765625,0.8697021484375,10.01712646484375,-0.06097560975609757,-0.12195121951219513,0.06097560975609757,-144.25,56.0,49.25
2021-10-23 16:14:59.92,1020.375,32.04,4.904235535020729,-4.333929100433614,20.723688495686467,0.75665283203125,0.86551513671875,10.01234130859375,0.0,-0.09146341463414635,-0.030487804878048783,-143.875,63.375,55.25
2021-10-23 16:15:00.10,1020.37744140625,32.04,4.959314423318471,-4.3628000376570535,20.852691584047275,0.76981201171875,0.8762817382812501,10.0201171875,-0.09146341463414635,-0.09146341463414635,0.030487804878048783,-137.5,60.25,53.625
2021-10-23 16:15:00.28,1020.375732421875,32.06,4.8864976080668,-4.333595280770683,20.60859845877623,0.7614379882812501,0.8649169921875001,10.020715332031251,-0.06097560975609757,-0.030487804878048783,0.030487804878048783,-147.0,58.25,50.0
2021-10-23 16:15:00.48,1020.37841796875,32.06,4.904852104258967,-4.337539403432208,20.572536479442675,0.7644287109375001,0.8816650390625,10.01533203125,-0.06097560975609757,-0.09146341463414635,0.030487804878048783,-142.375,59.25,53.125
2021-10-23 16:15:00.66,1020.347900390625,32.05,4.941717009779377,-4.353123476037505,20.6521484545408,0.765625,0.8738891601562501,10.019519042968751,-0.09146341463414635,-0.06097560975609757,0.030487804878048783,-141.5,60.75,54.75
2021-10-23 16:15:00.85,1020.365234375,32.03,5.015124217016401,-4.3804967971901,20.871689374080844,0.7644287109375001,0.87867431640625,10.011743164062501,-0.09146341463414635,-0.09146341463414635,-0.030487804878048783,-142.125,63.0,51.25
2021-10-23 16:15:01.04,1020.39404296875,32.03,5.006922317213355,-4.372958229652979,20.851096927254776,0.76502685546875,0.8810668945312501,10.0201171875,-0.09146341463414635,-0.030487804878048783,0.0,-142.5,60.625,54.75
2021-10-23 16:15:01.23,1020.377685546875,32.02,4.95326743709507,-4.360303533938305,20.761452764477845,0.76263427734375,0.8583374023437501,10.011743164062501,-0.09146341463414635,-0.09146341463414635,-0.030487804878048783,-142.125,59.25,53.75
2021-10-23 16:15:01.42,1020.35693359375,32.02,4.964532005364449,-4.355794606570821,20.788834223084375,0.75665283203125,0.8732910156250001,10.011743164062501,-0.06097560975609757,-0.09146341463414635,0.030487804878048783,-144.125,61.125,51.0
2021-10-23 16:15:01.60,1020.360595703125,32.03,4.955498357956874,-4.344136986670245,20.766297369865544,0.75665283203125,0.8703002929687501,10.013537597656251,-0.09146341463414635,-0.030487804878048783,-0.030487804878048783,-141.125,59.0,47.875
2021-10-23 16:15:01.80,1020.342529296875,32.03,4.93218481717968,-4.344814485643054,20.662051576391818,0.7686157226562501,0.8750854492187501,10.01533203125,-0.030487804878048783,-0.12195121951219513,0.0,-142.5,58.875,53.75
2021-10-23 16:15:01.99,1020.3603515625,32.03,4.972495236819196,-4.3446434850685645,20.736068550784914,0.75306396484375,0.8816650390625,10.017724609375001,-0.09146341463414635,-0.09146341463414635,0.0,-141.75,61.25,56.125
2021-10-23 16:15:02.18,1020.369384765625,32.02,4.986445239061964,-4.331875151532631,20.761738874725918,0.7482788085937501,0.87867431640625,10.02490234375,-0.030487804878048783,-0.09146341463414635,0.0,-141.75,60.125,50.75
2021-10-23 16:15:02.38,1020.356201171875,32.03,5.028866180107751,-4.343619954612725,20.948284384402946,0.75067138671875,0.8661132812500001,10.016528320312501,-0.09146341463414635,-0.06097560975609757,0.06097560975609757,-141.125,63.0,56.125
2021-10-23 16:15:02.56,1020.4033203125,32.04,4.978024580432419,-4.312373531306129,20.83025492186454,0.7476806640625,0.8691040039062501,10.0141357421875,-0.030487804878048783,-0.030487804878048783,-0.06097560975609757,-141.25,58.875,54.25
2021-10-23 16:15:02.74,1020.343994140625,32.05,4.930540005891792,-4.299461593603532,20.65225075322476,0.76083984375,0.87568359375,10.0141357421875,-0.09146341463414635,-0.030487804878048783,-0.06097560975609757,-145.25,58.75,51.25
2021-10-23 16:15:02.94,1020.384521484375,32.05,4.997558952527555,-4.321363525829003,20.89541238990113,0.7524658203125001,0.8649169921875001,10.00994873046875,-0.09146341463414635,0.030487804878048783,-0.030487804878048783,-140.25,62.625,51.75
2021-10-23 16:15:03.13,1020.383544921875,32.07,4.985293136842046,-4.324139074510752,20.85082677798785,0.76383056640625,0.8792724609375001,10.0069580078125,-0.12195121951219513,-0.030487804878048783,-0.030487804878048783,-143.625,60.375,51.5
2021-10-23 16:15:03.32,1020.410888671875,32.08,4.985324252245351,-4.328493854218414,20.90548410572684,0.7554565429687501,0.863720703125,10.00396728515625,-0.09146341463414635,-0.06097560975609757,0.030487804878048783,-142.125,61.375,53.875
2021-10-23 16:15:03.52,1020.37451171875,32.09,4.987816243677353,-4.321583578331992,20.907803499986617,0.7524658203125001,0.8762817382812501,10.01234130859375,-0.030487804878048783,-0.06097560975609757,0.030487804878048783,-140.75,60.0,51.875
2021-10-23 16:15:03.71,1020.40673828125,32.1,4.96645328442761,-4.315367726918594,20.88901525538121,0.7548583984375,0.86551513671875,10.02789306640625,-0.09146341463414635,-0.06097560975609757,-0.030487804878048783,-139.875,59.5,52.875
2021-10-23 16:15:03.89,1020.384765625,32.11,4.845015368735847,-4.267428511157667,20.514091879227585,0.7464843750000001,0.8643188476562501,10.02191162109375,-0.15243902439024393,-0.12195121951219513,0.0,-143.5,55.375,52.125
2021-10-23 16:15:04.09,1020.3798828125,32.12,4.870634350634832,-4.282373212203413,20.505545592250332,0.75665283203125,0.8744873046875,9.9973876953125,-0.12195121951219513,-0.12195121951219513,0.030487804878048783,-143.25,59.5,51.75
2021-10-23 16:15:04.28,1020.376953125,32.13,4.9855328018188745,-4.3314587886294245,20.79463715452147,0.7596435546875,0.87867431640625,10.01114501953125,-0.12195121951219513,-0.12195121951219513,-0.030487804878048783,-142.125,64.125,55.625
2021-10-23 16:15:04.47,1020.4111328125,32.13,5.054198319825984,-4.358009798120984,20.993133051150163,0.75904541015625,0.8822631835937501,10.01533203125,-0.06097560975609757,-0.12195121951219513,0.0,-140.25,62.875,55.125
2021-10-23 16:15:04.68,1020.380859375,32.14,4.9902305267673945,-4.32397072788982,20.838541195379694,0.7476806640625,0.868505859375,9.99320068359375,-0.030487804878048783,-0.06097560975609757,0.0,-142.5,58.625,51.625
2021-10-23 16:15:04.87,1020.40087890625,32.15,4.962938503222025,-4.306169328070787,20.736508686691646,0.7548583984375,0.88046875,10.02490234375,-0.030487804878048783,-0.030487804878048783,0.030487804878048783,-139.625,58.25,55.625
2021-10-23 16:15:05.05,1020.4013671875,32.15,4.978511058546219,-4.315965578964543,20.758686298450524,0.75904541015625,0.87867431640625,10.013537597656251,-0.06097560975609757,-0.09146341463414635,0.0,-140.625,60.125,55.0
2021-10-23 16:15:05.23,1020.41162109375,32.15,4.94555150526693,-4.321495902826798,20.650586885908677,0.7692138671875001,0.87269287109375,10.02430419921875,-0.06097560975609757,-0.09146341463414635,0.0,-143.25,58.75,50.75
2021-10-23 16:15:05.43,1020.37109375,32.16,4.9474126539610035,-4.314770915782155,20.667337602726814,0.7476806640625,0.868505859375,10.012939453125,-0.12195121951219513,-0.12195121951219513,0.0,-143.625,60.75,53.625
2021-10-23 16:15:05.61,1020.37890625,32.16,5.025491942778064,-4.348599209686845,20.95960353502637,0.7560546875,0.8661132812500001,10.00635986328125,-0.12195121951219513,-0.06097560975609757,0.030487804878048783,-143.0,64.75,53.625
2021-10-23 16:15:05.80,1020.37548828125,32.15,4.961630418298301,-4.327007209871436,20.730961930033313,0.7602416992187501,0.87747802734375,10.005761718750001,0.0,-0.12195121951219513,-0.09146341463414635,-145.625,58.625,51.625
2021-10-23 16:15:06.01,1020.373046875,32.14,4.930624158042466,-4.317211564398942,20.63258441470109,0.75665283203125,0.86671142578125,10.00396728515625,-0.030487804878048783,-0.09146341463414635,-0.030487804878048783,-140.75,58.0,51.75
2021-10-23 16:15:06.20,1020.34912109375,32.15,4.889322187728586,-4.310813066692677,20.494476854172504,0.76383056640625,0.86072998046875,10.027294921875,0.06097560975609757,-0.06097560975609757,0.0,-142.875,57.875,52.0
2021-10-23 16:15:06.38,1020.384033203125,32.15,4.8187810059119345,-4.3056695642214935,20.23455361408814,0.77100830078125,0.86072998046875,10.023706054687501,-0.09146341463414635,-0.09146341463414635,0.030487804878048783,-142.5,55.25,49.625
2021-10-23 16:15:06.59,1020.3720703125,32.16,4.9761148246441245,-4.420363904761585,20.45631782954079,0.8104858398437501,0.9091796875000001,9.993798828125001,0.09146341463414635,-0.426829268292683,-0.06097560975609757,-139.75,61.25,54.375
2021-10-23 16:15:06.77,1020.3740234375,32.16,5.079535559905032,-4.420979899390228,20.839837318863964,0.7482788085937501,0.87867431640625,10.032080078125,-0.15243902439024393,0.06097560975609757,-0.030487804878048783,-139.75,63.75,49.625
2021-10-23 16:15:06.96,1020.39501953125,32.16,5.016912386334956,-4.362959651469079,20.806752092134644,0.7243530273437501,0.84876708984375,10.00994873046875,-0.030487804878048783,-0.2134146341463415,0.030487804878048783,-142.375,60.0,52.125
2021-10-23 16:15:07.17,1020.353515625,32.17,4.966441052366328,-4.334453410574588,20.80280444974614,0.7482788085937501,0.8469726562500001,10.00516357421875,-0.1829268292682927,0.12195121951219513,0.06097560975609757,-143.875,60.625,50.625
2021-10-23 16:15:07.35,1020.387451171875,32.16,5.066934131362999,-4.36953689948808,21.187177934355923,0.7500732421875,0.8571411132812501,10.0009765625,-0.12195121951219513,0.0,0.0,-138.125,65.0,56.375
2021-10-23 16:15:07.53,1020.34130859375,32.16,4.998704824327497,-4.344145697669464,21.015172740473943,0.7572509765625001,0.87568359375,10.01832275390625,-0.06097560975609757,-0.15243902439024393,-0.030487804878048783,-141.125,58.625,53.125
2021-10-23 16:15:07.73,1020.347412109375,32.16,4.96075448719255,-4.334826081052723,21.00920372838077,0.7620361328125,0.8619262695312501,10.053613281250001,-0.27439024390243905,0.06097560975609757,0.06097560975609757,-143.125,61.375,54.5
2021-10-23 16:15:07.92,1020.389892578125,32.15,4.94182415717922,-4.331467467773368,20.945497706959397,0.7614379882812501,0.8720947265625001,10.011743164062501,-0.06097560975609757,-0.09146341463414635,0.030487804878048783,-140.875,59.75,55.5
2021-10-23 16:15:08.11,1020.363037109375,32.15,4.9673617449755145,-4.34506148813271,21.023632228983075,0.7614379882812501,0.87149658203125,9.99918212890625,-0.12195121951219513,-0.06097560975609757,0.06097560975609757,-141.5,61.875,55.125
2021-10-23 16:15:08.32,1020.361572265625,32.15,4.910301779692107,-4.342288043071392,21.02077425746164,0.75665283203125,0.8224487304687501,10.01114501953125,0.030487804878048783,-0.12195121951219513,-0.12195121951219513,-142.5,61.0,52.125
2021-10-23 16:15:08.51,1020.35986328125,32.14,4.895270977671146,-4.342901932500434,21.034421006182725,0.75784912109375,0.8493652343750001,10.0009765625,-0.12195121951219513,-0.09146341463414635,0.06097560975609757,-142.125,61.375,55.75
2021-10-23 16:15:08.69,1020.34375,32.15,5.012936958979095,-4.3858449681707,21.323867844654217,0.7686157226562501,0.8900390625000001,10.011743164062501,-0.15243902439024393,-0.06097560975609757,-0.06097560975609757,-140.875,64.875,52.625
2021-10-23 16:15:08.88,1020.378662109375,32.15,4.905129782701249,-4.3206934105991,20.90530581801357,0.74468994140625,0.8792724609375001,9.995593261718751,-0.12195121951219513,-0.09146341463414635,-0.030487804878048783,-148.25,57.5,49.0
2021-10-23 16:15:09.08,1020.3291015625,32.15,4.955469255115015,-4.348123930835502,21.040774958463263,0.7644287109375001,0.8703002929687501,9.9973876953125,-0.09146341463414635,-0.09146341463414635,0.0,-141.25,62.25,52.75
2021-10-23 16:15:09.26,1020.34619140625,32.15,4.900900804215074,-4.3228904728415,20.884418011638207,0.7524658203125001,0.863720703125,9.9902099609375,-0.09146341463414635,-0.09146341463414635,0.06097560975609757,-142.5,58.875,54.125
2021-10-23 16:15:09.45,1020.36376953125,32.14,4.882336108322691,-4.301147195408159,20.826400774354077,0.74110107421875,0.8571411132812501,9.989013671875,-0.09146341463414635,-0.09146341463414635,0.030487804878048783,-145.875,60.5,48.375
2021-10-23 16:15:09.66,1020.3291015625,32.14,4.88420939525302,-4.294486952264472,20.81477191226072,0.74708251953125,0.8583374023437501,9.98721923828125,-0.030487804878048783,-0.06097560975609757,0.0,-141.5,60.0,54.0
2021-10-23 16:15:09.84,1020.33740234375,32.15,4.955520924305173,-4.3011799829249515,20.97693362744027,0.7422973632812501,0.8732910156250001,9.996789550781251,-0.030487804878048783,-0.030487804878048783,0.0,-141.875,62.875,54.875
2021-10-23 16:15:10.03,1020.348876953125,32.15,4.982071335994749,-4.314391045448556,21.071982682545542,0.7554565429687501,0.8720947265625001,10.00516357421875,-0.09146341463414635,-0.06097560975609757,0.06097560975609757,-142.0,61.875,50.625
2021-10-23 16:15:10.23,1020.3583984375,32.15,4.955646061886083,-4.3186683027064925,21.00279186736908,0.7662231445312501,0.87149658203125,9.99918212890625,-0.09146341463414635,-0.030487804878048783,0.0,-142.5,60.75,57.75
2021-10-23 16:15:10.41,1020.355712890625,32.15,5.0258273402831,-4.348509531515658,21.24480530592014,0.75784912109375,0.8679077148437501,9.98721923828125,-0.030487804878048783,-0.030487804878048783,0.0,-139.25,63.25,51.75
2021-10-23 16:15:10.60,1020.310302734375,32.16,4.988395018686892,-4.32614430168046,21.197302800561875,0.74708251953125,0.8625244140625,9.9854248046875,-0.09146341463414635,-0.030487804878048783,0.0,-141.625,60.625,51.875
2021-10-23 16:15:10.82,1020.34814453125,32.16,5.007661358658236,-4.33591165908133,21.29253194085944,0.7554565429687501,0.8673095703125001,9.984228515625,-0.030487804878048783,-0.06097560975609757,0.0,-143.0,63.0,50.625
2021-10-23 16:15:11.00,1020.359375,32.16,4.984128323014004,-4.326569380532143,21.23671651372001,0.7548583984375,0.87269287109375,9.999780273437501,-0.06097560975609757,-0.09146341463414635,0.030487804878048783,-141.0,60.375,51.875
2021-10-23 16:15:11.18,1020.335693359375,32.16,4.968839279394764,-4.322666747616457,21.209469213414923,0.75784912109375,0.87149658203125,10.00516357421875,-0.12195121951219513,-0.030487804878048783,0.030487804878048783,-142.25,61.125,52.125
2021-10-23 16:15:11.39,1020.344970703125,32.16,5.016971070358798,-4.348760926699084,21.367361221848537,0.7602416992187501,0.87149658203125,9.99140625,-0.09146341463414635,-0.09146341463414635,-0.06097560975609757,-139.0,62.875,54.25
2021-10-23 16:15:11.58,1020.328369140625,32.17,5.01399534575942,-4.340087740370576,21.388975870662264,0.7500732421875,0.8703002929687501,9.992602539062501,-0.030487804878048783,-0.09146341463414635,-0.030487804878048783,-143.0,63.0,55.25
2021-10-23 16:15:11.76,1020.36572265625,32.18,4.954003037048839,-4.3173200490786705,21.25469706135878,0.753662109375,0.8631225585937501,10.01234130859375,-0.09146341463414635,-0.06097560975609757,-0.09146341463414635,-140.0,59.125,51.375
2021-10-23 16:15:11.96,1020.33251953125,32.19,4.89443807128114,-4.291824849466293,21.025565656765593,0.7554565429687501,0.8750854492187501,10.017724609375001,-0.09146341463414635,-0.06097560975609757,0.0,-143.625,58.625,51.75
2021-10-23 16:15:12.15,1020.317138671875,32.2,4.907754146978127,-4.296547451433559,20.954984616705612,0.76083984375,0.88465576171875,9.980639648437501,-0.06097560975609757,-0.030487804878048783,0.030487804878048783,-140.5,59.375,54.375
2021-10-23 16:15:12.34,1020.364501953125,32.2,4.948466964527114,-4.305735884774318,20.972545876510758,0.7554565429687501,0.88944091796875,10.00635986328125,-0.06097560975609757,-0.12195121951219513,0.0,-143.125,61.625,55.0
2021-10-23 16:15:12.52,1020.355712890625,32.19,5.021672672653967,-4.325773946161612,21.175961967534228,0.7524658203125001,0.88465576171875,10.00994873046875,-0.12195121951219513,-0.06097560975609757,-0.030487804878048783,-141.5,63.375,50.625
2021-10-23 16:15:12.71,1020.319580078125,32.19,5.0690970585286355,-4.336922865641351,21.305574946824343,0.75186767578125,0.8900390625000001,9.993798828125001,-0.06097560975609757,-0.12195121951219513,0.0,-141.0,62.625,49.875
2021-10-23 16:15:12.91,1020.369384765625,32.18,5.034681974063731,-4.339535076373,21.27869571042536,0.76383056640625,0.868505859375,10.00396728515625,-0.06097560975609757,-0.06097560975609757,0.0,-141.75,61.375,53.375
2021-10-23 16:15:13.09,1020.338134765625,32.19,5.050921618250427,-4.352585972924428,21.375985584780114,0.75904541015625,0.8732910156250001,10.007556152343751,-0.030487804878048783,-0.12195121951219513,0.030487804878048783,-136.25,60.75,51.75
2021-10-23 16:15:13.31,1020.334716796875,32.19,5.044000404388613,-4.343514373084386,21.417337766353498,0.748876953125,0.87149658203125,9.99619140625,-0.09146341463414635,-0.09146341463414635,0.0,-138.5,61.375,53.75
2021-10-23 16:15:13.50,1020.341064453125,32.19,5.002687607421546,-4.32229207417088,21.32746646682159,0.75306396484375,0.8750854492187501,10.00635986328125,-0.09146341463414635,-0.030487804878048783,-0.030487804878048783,-141.75,61.0,55.5
2021-10-23 16:15:13.68,1020.318359375,32.2,4.8766199766515514,-4.274530394350559,20.852424053224507,0.7560546875,0.88345947265625,10.003369140625,-0.06097560975609757,-0.09146341463414635,0.0,-145.625,56.0,52.5
2021-10-23 16:15:13.87,1020.30517578125,32.2,4.860111035215381,-4.260327878852162,20.757457978895147,0.74468994140625,0.8643188476562501,10.00516357421875,-0.06097560975609757,-0.06097560975609757,0.030487804878048783,-140.875,58.25,51.125
2021-10-23 16:15:14.06,1020.329345703125,32.21,4.934624352400052,-4.284280083414593,20.91726385725715,0.7464843750000001,0.88046875,9.996789550781251,-0.1829268292682927,-0.15243902439024393,0.06097560975609757,-140.875,61.875,52.125
2021-10-23 16:15:14.24,1020.31201171875,32.22,4.888574090582801,-4.271455088221353,20.715657578223453,0.7554565429687501,0.8762817382812501,10.0093505859375,-0.12195121951219513,-0.09146341463414635,-0.030487804878048783,-142.0,57.375,51.0
2021-10-23 16:15:14.46,1020.346923828125,32.23,4.843457162306154,-4.262333914269041,20.464479464409816,0.75904541015625,0.87867431640625,10.00635986328125,-0.06097560975609757,-0.12195121951219513,-0.030487804878048783,-143.875,56.875,52.75
2021-10-23 16:15:14.64,1020.31640625,32.22,4.857427574076935,-4.256371859174743,20.354853617249482,0.7494750976562501,0.887646484375,10.008154296875,-0.09146341463414635,-0.09146341463414635,0.0,-141.625,57.375,52.625
2021-10-23 16:15:14.82,1020.32275390625,32.22,4.911202456889761,-4.286835225507872,20.438474022443426,0.76502685546875,0.8798706054687501,10.02191162109375,-0.09146341463414635,-0.030487804878048783,0.030487804878048783,-141.5,59.625,50.625
2021-10-23 16:15:15.04,1020.327880859375,32.23,4.984152670775337,-4.318684528882159,20.57151383134984,0.76502685546875,0.8918334960937501,10.0069580078125,-0.09146341463414635,-0.06097560975609757,-0.030487804878048783,-141.375,60.625,50.25
2021-10-23 16:15:15.22,1020.317626953125,32.24,4.895842558676716,-4.29914608564564,20.254491323162522,0.7692138671875001,0.8768798828125001,10.014733886718751,0.0,-0.030487804878048783,-0.030487804878048783,-148.25,57.375,55.75
2021-10-23 16:15:15.40,1020.310546875,32.26,4.954387005379061,-4.342239088064123,20.384733886015272,0.772802734375,0.87568359375,10.00635986328125,-0.06097560975609757,-0.15243902439024393,-0.09146341463414635,-144.25,61.375,52.0
2021-10-23 16:15:15.60,1020.34912109375,32.27,5.019563484749452,-4.37011483886186,20.561391761836035,0.768017578125,0.8810668945312501,10.01533203125,-0.09146341463414635,-0.030487804878048783,0.06097560975609757,-140.125,61.25,55.375
2021-10-23 16:15:15.79,1020.337646484375,32.27,5.049340494068241,-4.3947389944191615,20.6623222642053,0.7739990234375,0.88345947265625,10.020715332031251,-0.06097560975609757,-0.15243902439024393,0.0,-137.375,59.0,49.875
2021-10-23 16:15:15.99,1020.335205078125,32.28,4.9880764718501585,-4.382394466425239,20.509002415417154,0.7763916015625001,0.8762817382812501,10.014733886718751,-0.09146341463414635,0.0,0.0,-143.0,58.25,55.125
2021-10-23 16:15:16.20,1020.332275390625,32.29,4.987953390177453,-4.364111746268181,20.473153388573323,0.7560546875,0.8828613281250001,9.9973876953125,-0.09146341463414635,-0.030487804878048783,-0.09146341463414635,-142.5,59.25,53.625
2021-10-23 16:15:16.38,1020.3466796875,32.28,4.998016046578069,-4.345593029823146,20.484913078111095,0.74588623046875,0.8822631835937501,10.0093505859375,-0.09146341463414635,-0.12195121951219513,0.0,-142.75,59.625,51.375
2021-10-23 16:15:16.56,1020.333984375,32.27,4.994817507733195,-4.339563516601163,20.520493014662062,0.75186767578125,0.8661132812500001,10.0093505859375,-0.06097560975609757,-0.09146341463414635,-0.06097560975609757,-142.375,60.0,52.25
2021-10-23 16:15:16.78,1020.355712890625,32.26,4.984672864908348,-4.342009418359407,20.468540169422628,0.7632324218750001,0.87747802734375,9.983630371093751,-0.030487804878048783,-0.09146341463414635,0.030487804878048783,-142.25,58.625,51.625
2021-10-23 16:15:16.97,1020.353759765625,32.25,4.970314265516609,-4.33881639953264,20.42354361676122,0.7620361328125,0.8750854492187501,10.0009765625,-0.12195121951219513,-0.030487804878048783,0.0,-141.625,58.125,49.625
2021-10-23 16:15:17.15,1020.340576171875,32.25,4.986309001192889,-4.334927942232242,20.46922834157191,0.75067138671875,0.87269287109375,9.99918212890625,-0.030487804878048783,-0.09146341463414635,0.0,-140.75,59.375,52.875
2021-10-23 16:15:17.34,1020.362060546875,32.25,5.005101520696577,-4.337042974751488,20.53093704845085,0.7554565429687501,0.8768798828125001,10.0069580078125,-0.06097560975609757,-0.06097560975609757,0.030487804878048783,-141.0,59.625,51.125
2021-10-23 16:15:17.53,1020.357421875,32.25,5.032471942648654,-4.354610949549598,20.629846170829136,0.76083984375,0.8744873046875,10.010546875000001,-0.030487804878048783,-0.15243902439024393,-0.030487804878048783,-140.625,60.875,56.0
2021-10-23 16:15:17.72,1020.309814453125,32.26,5.012426403757312,-4.338330309048187,20.587772926608558,0.7524658203125001,0.8810668945312501,10.011743164062501,-0.12195121951219513,-0.09146341463414635,0.030487804878048783,-140.875,59.125,56.125
2021-10-23 16:15:17.90,1020.306640625,32.26,5.000876104456439,-4.3248809251946625,20.482093321560452,0.75904541015625,0.89661865234375,10.00635986328125,-0.09146341463414635,-0.030487804878048783,0.030487804878048783,-141.125,57.75,52.625
2021-10-23 16:15:18.10,1020.333984375,32.26,5.005168087879541,-4.32713762663463,20.496566143475377,0.7584472656250001,0.8798706054687501,10.01533203125,-0.09146341463414635,-0.06097560975609757,0.0,-143.5,60.125,52.75
2021-10-23 16:15:18.28,1020.286376953125,32.27,5.006316836921527,-4.32154597979564,20.486920431417207,0.7560546875,0.8828613281250001,10.0189208984375,-0.06097560975609757,-0.030487804878048783,0.0,-142.25,59.5,54.125
2021-10-23 16:15:18.47,1020.345703125,32.28,5.075743439706858,-4.342396507758166,20.708200364459774,0.7542602539062501,0.8852539062500001,10.001574707031251,-0.06097560975609757,-0.06097560975609757,0.0,-143.0,62.875,51.0
2021-10-23 16:15:18.67,1020.334716796875,32.29,4.996250058839386,-4.32947794668114,20.531735569849257,0.7644287109375001,0.8732910156250001,10.02191162109375,-0.12195121951219513,-0.12195121951219513,0.0,-141.5,57.375,54.0
2021-10-23 16:15:18.85,1020.309326171875,32.29,5.041022924062282,-4.348445848656661,20.696914147531864,0.7572509765625001,0.8762817382812501,10.01533203125,-0.06097560975609757,-0.12195121951219513,0.0,-143.75,62.625,52.5
2021-10-23 16:15:19.04,1020.3603515625,32.3,5.07011513674742,-4.363263196798227,20.87695155442135,0.75784912109375,0.8732910156250001,10.0141357421875,-0.12195121951219513,-0.09146341463414635,0.030487804878048783,-140.25,61.5,48.75
2021-10-23 16:15:19.24,1020.354736328125,32.31,5.0862349886832,-4.367089912345679,20.946276848755364,0.7620361328125,0.8870483398437501,10.003369140625,-0.06097560975609757,-0.030487804878048783,0.0,-143.125,62.0,52.25
2021-10-23 16:15:19.42,1020.34765625,32.31,5.09326043747294,-4.377457869678178,21.094723792565865,0.75665283203125,0.8703002929687501,9.999780273437501,-0.15243902439024393,-0.15243902439024393,0.030487804878048783,-142.125,62.625,49.375
2021-10-23 16:15:19.61,1020.36279296875,32.3,5.010663977369115,-4.356201833240387,20.85623392119691,0.76502685546875,0.8792724609375001,9.9902099609375,-0.12195121951219513,-0.12195121951219513,-0.06097560975609757,-145.75,58.875,50.75
2021-10-23 16:15:19.81,1020.338623046875,32.29,5.010294644054286,-4.344686658110378,20.878378844749044,0.7494750976562501,0.87269287109375,9.998583984375001,-0.06097560975609757,-0.09146341463414635,-0.030487804878048783,-143.375,61.75,56.25
2021-10-23 16:15:19.99,1020.346435546875,32.29,4.9708094164833545,-4.315999480359309,20.783442927878745,0.74588623046875,0.87149658203125,10.001574707031251,-0.09146341463414635,-0.06097560975609757,-0.030487804878048783,-141.875,59.375,55.625
2021-10-23 16:15:20.17,1020.336181640625,32.28,4.993707093785128,-4.316166072973903,20.758031997975003,0.75665283203125,0.8984130859375,10.004565429687501,-0.12195121951219513,-0.09146341463414635,-0.030487804878048783,-143.75,60.875,55.75
2021-10-23 16:15:20.38,1020.309814453125,32.29,4.989750591248433,-4.330228513840531,20.747763533565337,0.7644287109375001,0.8744873046875,9.9902099609375,-0.06097560975609757,-0.12195121951219513,0.0,-139.75,59.625,57.0
2021-10-23 16:15:20.57,1020.3271484375,32.3,5.059139266769243,-4.377318700379859,21.02308204815744,0.772802734375,0.8703002929687501,10.014733886718751,-0.12195121951219513,-0.030487804878048783,-0.030487804878048783,-142.25,64.5,53.5
2021-10-23 16:15:20.75,1020.327880859375,32.32,5.023898990061284,-4.364582033678405,20.96808635747194,0.7602416992187501,0.87568359375,10.007556152343751,-0.09146341463414635,-0.09146341463414635,0.09146341463414635,-144.5,61.375,55.625
2021-10-23 16:15:20.95,1020.3623046875,32.32,4.9683399282511145,-4.325341018107646,20.790892482226827,0.7500732421875,0.88465576171875,10.023706054687501,-0.12195121951219513,-0.06097560975609757,0.0,-144.25,59.375,56.5
2021-10-23 16:15:21.13,1020.348388671875,32.32,4.985827878053602,-4.351273513673589,20.857861695809998,0.7692138671875001,0.8720947265625001,10.017724609375001,-0.09146341463414635,-0.15243902439024393,0.030487804878048783,-143.5,62.25,56.625
2021-10-23 16:15:21.32,1020.336669921875,32.31,5.000720570541581,-4.336060171819007,20.857921657463375,0.7476806640625,0.8864501953125,10.014733886718751,-0.030487804878048783,-0.12195121951219513,0.0,-142.75,60.625,51.75
2021-10-23 16:15:21.54,1020.348388671875,32.3,5.056935712474505,-4.359923388822094,21.037448265253545,0.76083984375,0.8816650390625,9.989611816406251,-0.12195121951219513,-0.06097560975609757,-0.030487804878048783,-144.25,64.25,54.0
2021-10-23 16:15:21.73,1020.322509765625,32.3,5.0016147361616,-4.3471649047321765,20.90077426936575,0.76383056640625,0.87867431640625,9.9949951171875,-0.12195121951219513,-0.09146341463414635,0.030487804878048783,-146.75,61.25,57.5
2021-10-23 16:15:21.91,1020.346923828125,32.29,4.953910978376617,-4.328962445494008,20.669011877394297,0.7644287109375001,0.89063720703125,9.99320068359375,-0.09146341463414635,-0.06097560975609757,0.0,-144.125,57.75,51.25
2021-10-23 16:15:22.09,1020.3798828125,32.29,4.968576427950096,-4.332232472960343,20.72598919754012,0.753662109375,0.8720947265625001,10.001574707031251,-0.1829268292682927,-0.09146341463414635,0.030487804878048783,-140.0,60.125,54.5
2021-10-23 16:15:22.29,1020.318115234375,32.3,5.003499485027923,-4.369101920336629,20.880238221470353,0.7751953125000001,0.863720703125,9.999780273437501,-0.06097560975609757,-0.030487804878048783,-0.030487804878048783,-140.0,61.5,52.125
2021-10-23 16:15:22.47,1020.35986328125,32.3,4.989547927342932,-4.372712190268234,20.895119086571867,0.76263427734375,0.863720703125,9.98721923828125,-0.12195121951219513,-0.12195121951219513,-0.030487804878048783,-139.625,60.125,55.125
2021-10-23 16:15:22.66,1020.36767578125,32.31,5.011750942401903,-4.37339036400844,21.01497400339988,0.7572509765625001,0.8697021484375,10.01114501953125,-0.12195121951219513,-0.030487804878048783,0.0,-141.25,61.875,51.25
2021-10-23 16:15:22.86,1020.342529296875,32.32,4.994097831053899,-4.363255591285389,20.93930239259716,0.7620361328125,0.8840576171875001,9.986621093750001,-0.09146341463414635,-0.09146341463414635,0.030487804878048783,-141.875,60.125,56.25
2021-10-23 16:15:23.04,1020.398193359375,32.33,5.06231074596304,-4.365150141987268,21.14764863359996,0.74588623046875,0.8822631835937501,9.99619140625,-0.12195121951219513,-0.030487804878048783,0.0,-139.875,63.25,54.625
2021-10-23 16:15:23.22,1020.38134765625,32.34,4.987498241925092,-4.332969054130282,20.9121677999104,0.7572509765625001,0.8858520507812501,10.0069580078125,-0.15243902439024393,-0.09146341463414635,0.030487804878048783,-141.5,57.5,51.5
2021-10-23 16:15:23.43,1020.333251953125,32.35,4.999570202395653,-4.319177701879455,20.880360321453523,0.7500732421875,0.8912353515625001,10.0021728515625,-0.030487804878048783,-0.06097560975609757,0.0,-139.875,59.625,55.375
2021-10-23 16:15:23.62,1020.333984375,32.36,5.023990808998384,-4.325967645258767,20.942030015951502,0.7542602539062501,0.8828613281250001,10.003369140625,-0.09146341463414635,-0.09146341463414635,0.030487804878048783,-139.25,60.75,56.0
2021-10-23 16:15:23.80,1020.379638671875,32.36,4.988837921704478,-4.319687829502547,20.874920322596218,0.7572509765625001,0.8697021484375,9.996789550781251,-0.12195121951219513,-0.06097560975609757,-0.030487804878048783,-144.75,60.625,51.625
2021-10-23 16:15:24.01,1020.371337890625,32.38,4.996437538390129,-4.326892923413209,20.871265887508628,0.76263427734375,0.8798706054687501,9.993798828125001,-0.030487804878048783,-0.030487804878048783,-0.030487804878048783,-141.125,60.0,51.75
2021-10-23 16:15:24.20,1020.348876953125,32.38,5.028541133309966,-4.356888774601521,20.98584908930248,0.76981201171875,0.8762817382812501,9.996789550781251,-0.06097560975609757,-0.09146341463414635,0.030487804878048783,-140.875,61.625,51.75
2021-10-23 16:15:24.38,1020.3212890625,32.39,4.946528328035756,-4.343255680114842,20.761950162512818,0.76981201171875,0.86551513671875,9.987817382812501,-0.09146341463414635,-0.030487804878048783,0.030487804878048783,-143.5,57.75,50.25
2021-10-23 16:15:24.58,1020.31396484375,32.39,4.983521964123358,-4.382387167353489,20.908040628854117,0.7739990234375,0.86551513671875,10.002770996093751,-0.09146341463414635,-0.1829268292682927,0.030487804878048783,-141.875,62.25,52.75
2021-10-23 16:15:24.76,1020.336669921875,32.41,4.96501637175992,-4.36954911063184,20.86659377625842,0.76083984375,0.8708984375000001,9.993798828125001,-0.12195121951219513,-0.030487804878048783,0.0,-142.5,60.25,53.625
2021-10-23 16:15:24.95,1020.35205078125,32.4,5.02323117962805,-4.39158877446808,20.99024439315449,0.75784912109375,0.8840576171875001,9.979443359375,0.0,-0.3658536585365854,-0.06097560975609757,-143.25,62.875,52.625
2021-10-23 16:15:25.15,1020.35546875,32.41,4.975079239924085,-4.36524643061729,20.865566688234214,0.7584472656250001,0.8720947265625001,9.99619140625,-0.06097560975609757,-0.06097560975609757,-0.06097560975609757,-142.0,59.375,55.875
2021-10-23 16:15:25.34,1020.37109375,32.41,4.955564182347779,-4.328648918006451,20.755884174372948,0.75306396484375,0.8822631835937501,10.001574707031251,-0.06097560975609757,0.1829268292682927,0.030487804878048783,-143.25,59.125,51.625
2021-10-23 16:15:25.52,1020.35498046875,32.4,4.972308911438979,-4.328002321585642,20.655958982877497,0.7704101562500001,0.90858154296875,9.9973876953125,-0.12195121951219513,0.06097560975609757,0.0,-139.0,57.625,53.625
2021-10-23 16:15:25.71,1020.36767578125,32.41,5.004320839212896,-4.344746685573546,20.73926534146103,0.7548583984375,0.8762817382812501,10.0009765625,-0.030487804878048783,-0.27439024390243905,-0.030487804878048783,-143.375,61.875,54.625
2021-10-23 16:15:25.90,1020.3291015625,32.41,5.017646517555217,-4.322926294321306,20.785342590560216,0.7369140625,0.8768798828125001,10.001574707031251,-0.06097560975609757,-0.09146341463414635,0.0,-138.5,59.875,56.25
2021-10-23 16:15:26.08,1020.38916015625,32.41,5.02417657359903,-4.345913728914337,20.845941578777683,0.768017578125,0.8750854492187501,9.999780273437501,-0.1829268292682927,-0.09146341463414635,0.0,-138.625,60.125,55.0
2021-10-23 16:15:26.28,1020.359375,32.42,4.96061498557095,-4.334150125808396,20.599940618496184,0.7692138671875001,0.8828613281250001,9.99918212890625,-0.06097560975609757,-0.09146341463414635,0.0,-141.625,56.25,49.0
2021-10-23 16:15:26.47,1020.322265625,32.43,5.02910187710258,-4.351785999641732,20.76154266212336,0.75904541015625,0.88944091796875,10.01593017578125,-0.09146341463414635,-0.06097560975609757,0.0,-140.875,61.75,53.375
2021-10-23 16:15:26.65,1020.375,32.43,5.044456856017127,-4.334036958929769,20.835998008443052,0.7428955078125,0.8816650390625,10.01593017578125,-0.12195121951219513,-0.030487804878048783,0.030487804878048783,-142.25,61.375,52.625
2021-10-23 16:15:26.84,1020.35498046875,32.43,5.0196012729151365,-4.3408597274447045,20.73446509368673,0.768017578125,0.8882446289062501,10.010546875000001,-0.09146341463414635,-0.1829268292682927,0.0,-145.5,59.875,49.625
2021-10-23 16:15:27.03,1020.37060546875,32.44,4.968961389140681,-4.325941532422457,20.553619132455957,0.7602416992187501,0.8828613281250001,10.014733886718751,-0.09146341463414635,-0.15243902439024393,-0.030487804878048783,-142.75,57.625,52.0
2021-10-23 16:15:27.22,1020.36767578125,32.44,4.969997689610166,-4.320210222882283,20.490390957972494,0.7572509765625001,0.887646484375,10.008154296875,-0.06097560975609757,-0.09146341463414635,-0.030487804878048783,-140.375,58.125,53.75
2021-10-23 16:15:27.41,1020.36474609375,32.44,4.981379119342613,-4.328576466892609,20.490216426973976,0.7632324218750001,0.88465576171875,10.008154296875,-0.15243902439024393,-0.06097560975609757,-0.030487804878048783,-141.875,59.25,52.125
2021-10-23 16:15:27.60,1020.347900390625,32.42,4.981240776266083,-4.339578757208543,20.47487470180764,0.7686157226562501,0.8792724609375001,9.998583984375001,-0.12195121951219513,-0.030487804878048783,0.0,-143.25,59.375,50.875
2021-10-23 16:15:27.79,1020.351318359375,32.42,5.008494837523771,-4.35687049605465,20.55189039400064,0.765625,0.8762817382812501,9.992602539062501,-0.06097560975609757,-0.06097560975609757,0.0,-141.125,60.375,54.75
2021-10-23 16:15:27.97,1020.365234375,32.42,5.0647115618421745,-4.36115441784047,20.699111532897103,0.75306396484375,0.8936279296875,10.0021728515625,-0.06097560975609757,-0.09146341463414635,0.030487804878048783,-141.0,60.75,47.625
2021-10-23 16:15:28.17,1020.322998046875,32.42,5.128709418562844,-4.3875998793982856,20.908779719270903,0.7644287109375001,0.8918334960937501,9.99140625,-0.12195121951219513,-0.06097560975609757,0.030487804878048783,-138.5,61.875,53.125
2021-10-23 16:15:28.35,1020.3583984375,32.42,5.129853352746293,-4.391848447066141,20.97462373243985,0.765625,0.8888427734375001,10.002770996093751,-0.15243902439024393,-0.06097560975609757,-0.030487804878048783,-138.75,60.375,51.875
2021-10-23 16:15:28.55,1020.36572265625,32.43,5.185326565797311,-4.424007891965108,21.26023488522237,0.7692138671875001,0.88345947265625,9.989611816406251,-0.09146341463414635,-0.06097560975609757,0.030487804878048783,-142.5,65.125,50.375
2021-10-23 16:15:28.74,1020.3798828125,32.42,5.172817597117235,-4.420811784981953,21.268349664748584,0.7692138671875001,0.8978149414062501,9.99200439453125,-0.09146341463414635,-0.09146341463414635,-0.030487804878048783,-140.375,61.5,54.0
2021-10-23 16:15:28.93,1020.339599609375,32.42,5.049005648373237,-4.365935375554493,20.936713834547582,0.75904541015625,0.88944091796875,10.004565429687501,-0.12195121951219513,-0.06097560975609757,0.0,-144.625,58.0,54.625
2021-10-23 16:15:29.11,1020.320068359375,32.42,5.035659911480234,-4.367475966255471,20.946045911747348,0.7632324218750001,0.8744873046875,9.999780273437501,-0.09146341463414635,-0.09146341463414635,0.030487804878048783,-138.625,59.5,52.375
2021-10-23 16:15:29.30,1020.347412109375,32.43,4.995516607715773,-4.351310591824635,20.784895654266524,0.7632324218750001,0.8864501953125,10.001574707031251,-0.06097560975609757,-0.09146341463414635,0.030487804878048783,-143.25,58.5,50.125
2021-10-23 16:15:29.49,1020.360107421875,32.43,4.988541392159505,-4.361007230695722,20.712036449189558,0.772802734375,0.887646484375,10.008154296875,-0.030487804878048783,-0.15243902439024393,0.030487804878048783,-144.375,60.25,54.75
2021-10-23 16:15:29.68,1020.352294921875,32.43,4.961705066932901,-4.346061819827283,20.60426680905012,0.7554565429687501,0.8762817382812501,9.9854248046875,-0.06097560975609757,-0.15243902439024393,-0.030487804878048783,-145.375,59.75,53.375
2021-10-23 16:15:29.87,1020.361328125,32.44,4.959839460934043,-4.354713340666987,20.558693504372616,0.7704101562500001,0.8810668945312501,10.002770996093751,-0.09146341463414635,-0.09146341463414635,0.030487804878048783,-143.25,59.5,53.25
2021-10-23 16:15:30.06,1020.361083984375,32.44,4.951236487309102,-4.345572596287266,20.430386545957504,0.7560546875,0.8936279296875,9.98004150390625,-0.12195121951219513,-0.27439024390243905,-0.030487804878048783,-141.625,57.75,54.625
2021-10-23 16:15:30.25,1020.348388671875,32.45,5.065272153524458,-4.387151987164944,20.745041965318393,0.765625,0.8900390625000001,10.0141357421875,-0.09146341463414635,-0.09146341463414635,0.0,-139.375,62.75,51.75
2021-10-23 16:15:30.44,1020.339599609375,32.45,5.076046589330737,-4.3985553442042775,20.807353336543553,0.76981201171875,0.8852539062500001,10.012939453125,-0.12195121951219513,-0.12195121951219513,-0.030487804878048783,-142.5,61.625,55.0
2021-10-23 16:15:30.63,1020.355712890625,32.46,5.041463958911224,-4.373615693092123,20.674230581408363,0.7602416992187501,0.89542236328125,10.003369140625,-0.09146341463414635,-0.09146341463414635,0.030487804878048783,-145.875,60.0,54.375
2021-10-23 16:15:30.82,1020.350341796875,32.47,5.049555360866111,-4.3849835187567905,20.734313752452927,0.7686157226562501,0.87867431640625,10.012939453125,-0.12195121951219513,-0.09146341463414635,-0.06097560975609757,-141.875,61.25,56.0
2021-10-23 16:15:31.01,1020.33447265625,32.49,5.086132079441316,-4.380171846303849,20.857577057497924,0.7554565429687501,0.88465576171875,10.013537597656251,0.0,0.0,0.0,-140.625,61.625,54.0
2021-10-23 16:15:31.21,1020.394775390625,32.5,5.105069665596719,-4.377408116656562,21.08796212837755,0.7452880859375001,0.8625244140625,10.03387451171875,-0.12195121951219513,-0.09146341463414635,0.09146341463414635,-141.875,63.75,51.75
2021-10-23 16:15:31.39,1020.388427734375,32.51,5.09029466285516,-4.369252951456775,21.02284650345633,0.768017578125,0.9002075195312501,10.023706054687501,-0.06097560975609757,-0.030487804878048783,0.0,-140.75,59.5,50.25
2021-10-23 16:15:31.58,1020.35107421875,32.51,5.125290742192494,-4.38417468698372,21.22512022734522,0.7584472656250001,0.8744873046875,9.99200439453125,-0.030487804878048783,-0.06097560975609757,-0.030487804878048783,-141.5,63.625,50.625
2021-10-23 16:15:31.78,1020.366455078125,32.51,5.144787285418789,-4.371257242803048,21.336919828397708,0.7512695312500001,0.8912353515625001,10.0332763671875,-0.06097560975609757,0.0,-0.030487804878048783,-137.5,61.5,52.125
2021-10-23 16:15:31.96,1020.3115234375,32.51,5.094206853126326,-4.361712667502136,21.228020220146313,0.7704101562500001,0.8864501953125,10.0201171875,-0.06097560975609757,0.0,-0.09146341463414635,-140.875,59.625,49.625
2021-10-23 16:15:32.15,1020.348876953125,32.51,5.061372896745212,-4.369753379143736,21.166848846301384,0.76383056640625,0.87747802734375,9.97525634765625,-0.030487804878048783,-0.30487804878048785,-0.030487804878048783,-144.375,61.75,53.625
2021-10-23 16:15:32.34,1020.390869140625,32.51,5.0526358244989,-4.3681974837205235,21.13437648603312,0.7632324218750001,0.88345947265625,9.99200439453125,0.030487804878048783,-0.12195121951219513,-0.030487804878048783,-143.875,61.625,52.25
2021-10-23 16:15:32.53,1020.388671875,32.49,5.014328715086535,-4.324420859621521,20.991625886277664,0.7375122070312501,0.8864501953125,9.97645263671875,-0.06097560975609757,-0.12195121951219513,-0.030487804878048783,-143.125,59.75,53.875
2021-10-23 16:15:32.72,1020.361572265625,32.49,4.954136389086127,-4.310343577644622,20.76722586320216,0.76083984375,0.88046875,9.995593261718751,-0.09146341463414635,-0.12195121951219513,-0.030487804878048783,-143.0,57.625,50.25
2021-10-23 16:15:32.91,1020.333251953125,32.5,5.040199780674272,-4.321410616184605,20.927327891070302,0.7428955078125,0.89542236328125,9.98721923828125,-0.030487804878048783,-0.15243902439024393,0.0,-138.75,61.625,55.25
2021-10-23 16:15:33.09,1020.339599609375,32.5,4.989167995918372,-4.292097574696619,20.774392422637565,0.7434936523437501,0.8798706054687501,9.98123779296875,-0.12195121951219513,-0.09146341463414635,-0.030487804878048783,-140.375,57.875,53.375
2021-10-23 16:15:33.28,1020.376220703125,32.49,4.939774548844935,-4.285106857016602,20.627617659095932,0.7584472656250001,0.87149658203125,9.986621093750001,-0.12195121951219513,-0.030487804878048783,0.0,-143.375,58.625,54.125
2021-10-23 16:15:33.48,1020.3564453125,32.48,4.968699323066914,-4.317313433248716,20.676667041408354,0.7686157226562501,0.87867431640625,9.965686035156251,-0.15243902439024393,-0.06097560975609757,0.030487804878048783,-139.625,59.625,53.625
2021-10-23 16:15:33.67,1020.420166015625,32.47,5.0682389248763,-4.370881364251463,21.044923546607247,0.76263427734375,0.86671142578125,9.987817382812501,-0.09146341463414635,-0.09146341463414635,0.030487804878048783,-141.125,65.125,53.0
2021-10-23 16:15:33.85,1020.37158203125,32.46,4.9637220007779055,-4.33703693356207,20.72052402604075,0.7620361328125,0.8816650390625,9.987817382812501,-0.12195121951219513,-0.12195121951219513,0.0,-145.25,57.5,53.875
2021-10-23 16:15:34.06,1020.35107421875,32.45,4.993898779050869,-4.358650071421704,20.786682097855845,0.7668212890625,0.8798706054687501,9.9854248046875,-0.12195121951219513,-0.12195121951219513,-0.030487804878048783,-141.125,60.75,53.125
2021-10-23 16:15:34.24,1020.36669921875,32.44,5.013036290563063,-4.352786720786623,20.798592940454988,0.7542602539062501,0.8882446289062501,9.9973876953125,-0.06097560975609757,-0.12195121951219513,0.0,-143.125,60.75,51.75
2021-10-23 16:15:34.43,1020.383056640625,32.45,4.990939336969138,-4.353267999568871,20.728703440169543,0.76383056640625,0.8744873046875,9.980639648437501,-0.06097560975609757,-0.12195121951219513,-0.030487804878048783,-139.875,58.0,48.625
2021-10-23 16:15:34.63,1020.365966796875,32.45,5.061010236139632,-4.3797339675411076,20.9854794613962,0.7596435546875,0.8732910156250001,9.996789550781251,-0.09146341463414635,-0.06097560975609757,-0.030487804878048783,-142.875,64.375,53.125
2021-10-23 16:15:34.82,1020.35205078125,32.46,5.026534586981442,-4.373163793267248,20.920472639893383,0.7662231445312501,0.8762817382812501,9.996789550781251,-0.12195121951219513,-0.06097560975609757,0.0,-139.25,58.375,48.5
2021-10-23 16:15:35.01,1020.3876953125,32.45,4.9931279085771765,-4.3641081366946635,20.797720666577654,0.7674194335937501,0.8858520507812501,9.996789550781251,-0.12195121951219513,-0.09146341463414635,0.0,-142.75,59.25,54.0
2021-10-23 16:15:35.21,1020.3701171875,32.46,4.990499010597937,-4.36392368767538,20.746525664888654,0.765625,0.8864501953125,10.002770996093751,-0.09146341463414635,-0.12195121951219513,0.0,-144.125,60.25,52.125
2021-10-23 16:15:35.40,1020.39013671875,32.47,4.989060409633051,-4.348351124865153,20.661661786822236,0.75665283203125,0.8912353515625001,9.999780273437501,-0.030487804878048783,-0.09146341463414635,0.0,-142.5,58.75,50.0
2021-10-23 16:15:35.58,1020.348388671875,32.48,5.063876149061199,-4.362934113654661,20.89382943973579,0.7500732421875,0.8840576171875001,10.00635986328125,-0.09146341463414635,-0.12195121951219513,0.0,-142.125,63.375,52.25
2021-10-23 16:15:35.77,1020.36279296875,32.48,5.046686377622123,-4.350243579439601,20.865821716996567,0.7554565429687501,0.8858520507812501,10.014733886718751,-0.15243902439024393,-0.09146341463414635,0.030487804878048783,-141.75,59.75,49.875
2021-10-23 16:15:35.96,1020.356201171875,32.49,5.1037109979846775,-4.383239159871488,21.052637147225493,0.7704101562500001,0.89063720703125,10.0069580078125,-0.12195121951219513,-0.09146341463414635,-0.030487804878048783,-139.75,62.375,51.875
2021-10-23 16:15:36.15,1020.36474609375,32.5,5.10582819894779,-4.38107094682951,21.122508307738084,0.7572509765625001,0.8792724609375001,9.998583984375001,-0.06097560975609757,-0.09146341463414635,-0.030487804878048783,-140.5,62.0,55.875
2021-10-23 16:15:36.34,1020.358154296875,32.5,4.994608166932496,-4.3182829959173405,20.831492636987228,0.7381103515625,0.8750854492187501,9.998583984375001,-0.12195121951219513,-0.12195121951219513,0.0,-145.125,58.125,53.0
2021-10-23 16:15:36.54,1020.397705078125,32.5,5.0761236491863375,-4.35463050731543,21.09992825899079,0.75784912109375,0.87747802734375,9.998583984375001,-0.09146341463414635,-0.09146341463414635,0.0,-140.25,64.0,54.75
2021-10-23 16:15:36.72,1020.37353515625,32.51,5.052222113109476,-4.344784283600067,21.01858491234891,0.7596435546875,0.8918334960937501,10.008752441406251,-0.09146341463414635,-0.12195121951219513,-0.030487804878048783,-140.5,59.5,53.0
2021-10-23 16:15:36.90,1020.40380859375,32.52,5.021349720048193,-4.318961480134745,20.87377875454738,0.75067138671875,0.892431640625,10.007556152343751,-0.030487804878048783,-0.09146341463414635,0.0,-143.5,59.125,50.5
2021-10-23 16:15:37.09,1020.4072265625,32.53,5.042445504573222,-4.309242478013054,20.902454835072675,0.744091796875,0.892431640625,10.0021728515625,-0.09146341463414635,-0.09146341463414635,0.030487804878048783,-137.75,59.375,53.375
2021-10-23 16:15:37.28,1020.39501953125,32.53,5.086245825971147,-4.341142125951327,21.02690539861144,0.765625,0.8930297851562501,10.01533203125,-0.12195121951219513,-0.15243902439024393,0.0,-142.125,62.875,55.25
2021-10-23 16:15:37.47,1020.351806640625,32.54,5.02581581526822,-4.330157608115709,20.779817313690433,0.7704101562500001,0.89542236328125,10.0093505859375,0.0,-0.09146341463414635,-0.030487804878048783,-143.125,57.5,50.125
2021-10-23 16:15:37.68,1020.376708984375,32.54,5.069432242220697,-4.365311684010443,20.886404508053644,0.77579345703125,0.892431640625,10.003369140625,-0.06097560975609757,-0.09146341463414635,0.0,-138.125,60.125,50.875
2021-10-23 16:15:37.86,1020.39697265625,32.54,5.1451538289015,-4.3902632731540185,21.13306786823471,0.75904541015625,0.8936279296875,10.011743164062501,-0.12195121951219513,-0.12195121951219513,-0.030487804878048783,-139.375,63.5,54.0
2021-10-23 16:15:38.05,1020.38623046875,32.54,5.054237137369189,-4.347550385358275,20.826804164471895,0.7584472656250001,0.90140380859375,10.01234130859375,-0.15243902439024393,-0.09146341463414635,0.030487804878048783,-141.625,56.375,49.75
2021-10-23 16:15:38.24,1020.356689453125,32.54,5.049026597527082,-4.354563135234216,20.80803180647044,0.7662231445312501,0.8870483398437501,9.99140625,-0.09146341463414635,-0.09146341463414635,0.0,-140.75,59.5,51.375
2021-10-23 16:15:38.43,1020.374267578125,32.54,5.047968404392499,-4.368200918763503,20.82136420582485,0.7716064453125001,0.8852539062500001,9.9973876953125,-0.15243902439024393,-0.06097560975609757,0.030487804878048783,-140.5,60.375,56.25
2021-10-23 16:15:38.62,1020.378173828125,32.54,5.09313957836238,-4.395050434489933,20.969201198334584,0.77100830078125,0.8900390625000001,10.01832275390625,-0.06097560975609757,-0.15243902439024393,0.0,-141.125,62.125,51.375
2021-10-23 16:15:38.82,1020.38818359375,32.54,4.988217334007297,-4.361629763381973,20.662353722295908,0.7674194335937501,0.8828613281250001,10.013537597656251,-0.15243902439024393,-0.09146341463414635,0.0,-143.25,56.625,51.625
2021-10-23 16:15:39.01,1020.38232421875,32.55,5.0459093488364966,-4.3699489010900585,20.743137914390758,0.76263427734375,0.9055908203125,10.01832275390625,-0.12195121951219513,-0.09146341463414635,0.0,-142.375,61.5,54.625
2021-10-23 16:15:39.19,1020.371826171875,32.55,5.085893575139415,-4.397850701761691,20.909518309575297,0.7734008789062501,0.87568359375,10.0093505859375,-0.030487804878048783,-0.030487804878048783,-0.06097560975609757,-138.75,61.625,54.25
2021-10-23 16:15:39.39,1020.3525390625,32.56,5.115058266694826,-4.388769314900001,21.010654112262166,0.75186767578125,0.892431640625,10.002770996093751,-0.09146341463414635,-0.09146341463414635,-0.030487804878048783,-139.5,61.375,53.5
2021-10-23 16:15:39.58,1020.334228515625,32.57,5.137343090642713,-4.406343008585993,21.147813925827542,0.7722045898437501,0.88465576171875,10.017724609375001,-0.06097560975609757,-0.030487804878048783,0.0,-142.0,63.25,54.0
2021-10-23 16:15:39.77,1020.36279296875,32.58,5.094742446606043,-4.403227642554092,21.0753693740176,0.7734008789062501,0.8852539062500001,10.008752441406251,-0.06097560975609757,-0.12195121951219513,0.06097560975609757,-141.75,60.125,52.0
2021-10-23 16:15:39.96,1020.3896484375,32.58,5.061967006190136,-4.410578093564298,20.956616202839886,0.7853637695312501,0.8936279296875,10.0021728515625,-0.09146341463414635,-0.09146341463414635,-0.06097560975609757,-142.875,59.5,50.125
2021-10-23 16:15:40.17,1020.360595703125,32.58,5.061537755891545,-4.411744092163413,20.910584711555188,0.7739990234375,0.899609375,10.0093505859375,-0.09146341463414635,-0.15243902439024393,-0.030487804878048783,-142.125,60.25,53.0
2021-10-23 16:15:40.35,1020.385009765625,32.59,5.147320123479119,-4.424724281558172,21.181620790024382,0.7542602539062501,0.8900390625000001,10.01593017578125,-0.06097560975609757,-0.12195121951219513,0.0,-140.75,64.875,56.875
2021-10-23 16:15:40.53,1020.390869140625,32.6,5.103330143841697,-4.389693284110068,21.07109979643456,0.7560546875,0.8942260742187501,10.002770996093751,-0.06097560975609757,-0.06097560975609757,0.06097560975609757,-137.375,57.875,50.75
2021-10-23 16:15:40.73,1020.379150390625,32.61,5.11690299664082,-4.405049257197993,21.150244772000825,0.772802734375,0.8900390625000001,10.00516357421875,-0.09146341463414635,-0.09146341463414635,0.030487804878048783,-138.875,61.0,51.625
2021-10-23 16:15:40.92,1020.396728515625,32.61,5.171313773425754,-4.424260336436748,21.401509465173874,0.7620361328125,0.8852539062500001,10.005761718750001,-0.12195121951219513,-0.09146341463414635,0.0,-139.125,64.125,53.0
2021-10-23 16:15:41.11,1020.39453125,32.61,5.0709413601834425,-4.377919580692222,21.195983201103036,0.7548583984375,0.8732910156250001,10.012939453125,-0.09146341463414635,-0.06097560975609757,-0.030487804878048783,-140.375,58.125,49.125
2021-10-23 16:15:41.32,1020.39111328125,32.62,5.0350802568609,-4.351762191926908,21.054621673030002,0.7584472656250001,0.8984130859375,10.00635986328125,-0.12195121951219513,-0.06097560975609757,0.06097560975609757,-139.75,58.625,53.75
2021-10-23 16:15:41.51,1020.3828125,32.62,5.0617956226728555,-4.38195565592333,21.21789022425453,0.7739990234375,0.8720947265625001,10.01712646484375,-0.12195121951219513,-0.030487804878048783,0.0,-140.0,62.5,51.0
2021-10-23 16:15:41.69,1020.39794921875,32.62,5.013875152238818,-4.363712477077817,21.063725619575724,0.7662231445312501,0.887646484375,10.02490234375,-0.09146341463414635,-0.09146341463414635,-0.030487804878048783,-140.25,58.5,51.625
2021-10-23 16:15:41.91,1020.39111328125,32.62,5.03945268576488,-4.38397241730971,21.152233688477533,0.7716064453125001,0.8840576171875001,10.002770996093751,-0.12195121951219513,-0.09146341463414635,0.030487804878048783,-142.0,62.0,49.5
2021-10-23 16:15:42.12,1020.365966796875,32.61,5.043666476105835,-4.385910625783898,21.19409789385757,0.765625,0.8798706054687501,10.007556152343751,-0.09146341463414635,-0.06097560975609757,0.0,-143.125,62.375,52.25
2021-10-23 16:15:42.31,1020.369384765625,32.61,5.0681110180486675,-4.387917468413498,21.228497417902684,0.7632324218750001,0.8984130859375,10.00994873046875,-0.09146341463414635,-0.15243902439024393,0.0,-142.125,62.0,52.0
2021-10-23 16:15:42.49,1020.40673828125,32.61,5.045486078282235,-4.366808656114847,21.17764953407881,0.7572509765625001,0.8828613281250001,10.012939453125,-0.06097560975609757,-0.030487804878048783,-0.030487804878048783,-142.375,60.75,50.5
2021-10-23 16:15:42.68,1020.37060546875,32.61,5.098806341500016,-4.368297119915571,21.369261894681628,0.74588623046875,0.8828613281250001,9.99320068359375,-0.06097560975609757,-0.09146341463414635,0.0,-141.875,64.375,53.25
2021-10-23 16:15:42.86,1020.395263671875,32.6,5.0925631309213975,-4.3668487415661765,21.397316902640505,0.7602416992187501,0.88465576171875,10.0093505859375,-0.09146341463414635,-0.09146341463414635,-0.030487804878048783,-141.125,62.125,52.5
2021-10-23 16:15:43.06,1020.381591796875,32.61,5.042594802498732,-4.35134602364387,21.220621355284624,0.76383056640625,0.8912353515625001,9.99439697265625,-0.06097560975609757,-0.12195121951219513,-0.030487804878048783,-143.75,60.0,51.25
2021-10-23 16:15:43.25,1020.37890625,32.62,5.020597311222706,-4.352000771749842,21.14067092855875,0.768017578125,0.8852539062500001,10.003369140625,-0.06097560975609757,-0.09146341463414635,0.0,-143.75,61.0,52.5
2021-10-23 16:15:43.43,1020.36865234375,32.63,5.028492763109592,-4.352093891789985,21.18446249134528,0.7554565429687501,0.8798706054687501,10.002770996093751,-0.12195121951219513,-0.12195121951219513,0.030487804878048783,-144.625,63.125,54.0
2021-10-23 16:15:43.62,1020.400634765625,32.64,4.962481042128046,-4.328914365631339,20.9023231055555,0.76383056640625,0.89542236328125,10.0021728515625,-0.09146341463414635,-0.15243902439024393,0.0,-143.0,57.625,53.0
2021-10-23 16:15:43.81,1020.376708984375,32.65,4.991373097527478,-4.3550101124513505,20.98771908020713,0.7692138671875001,0.87269287109375,10.00037841796875,-0.06097560975609757,-0.09146341463414635,0.0,-139.25,61.0,54.75
2021-10-23 16:15:43.99,1020.411865234375,32.66,5.0795274761455405,-3.521130228833242,21.074635940407884,0.63343505859375,0.91934814453125,9.932788085937501,-1.2195121951219514,14.359756097560977,-4.085365853658537,-127.125,58.125,51.75
2021-10-23 16:15:44.19,1020.416259765625,32.68,4.11879713295375,-6.3194571047382295,21.63400337156823,3.2341674804687504,-0.2966796875,9.140246582031251,5.76219512195122,14.420731707317074,-4.390243902439025,-135.5,67.5,55.625
2021-10-23 16:15:44.39,1020.395751953125,32.68,4.851432569120547,-5.355877601875333,21.5307539268841,1.1251098632812502,1.02462158203125,9.6385009765625,6.920731707317074,21.219512195121954,-1.1890243902439026,-128.625,55.25,46.25
2021-10-23 16:15:44.57,1020.36376953125,32.67,-2.6344605192532398,-8.003820562892074,14.449669001931325,3.54281005859375,-1.3003662109375,10.91912841796875,-289.6646341463415,-133.01829268292684,-34.96951219512196,-91.125,-8220.125,-8263.5
2021-10-23 16:15:44.76,1020.39453125,32.66,-26.023534231242145,-11.483020600814132,9.046371741789258,3.311328125,-5.72843017578125,1.1825317382812501,-228.62804878048783,49.96951219512196,85.67073170731707,-108.125,-16399.625,-73.125
2021-10-23 16:15:44.95,1020.390625,32.63,-8.835104831443672,-15.057935018713966,9.81648777849578,4.888037109375,-3.48299560546875,8.9494384765625,378.32317073170736,9.146341463414634,-75.57926829268294,-128.375,104.0,-16.75
2021-10-23 16:15:45.14,1020.3994140625,32.6,-20.094980159375595,-9.264625478828746,22.553713746026826,-0.2787353515625,3.2957763671875004,3.4542846679687504,-401.5548780487805,10.060975609756099,66.21951219512195,-132.125,24582.25,-103.125
2021-10-23 16:15:45.32,1020.36181640625,32.57,-39.80370559642974,7.406099780462521,30.42347453815125,2.2113403320312504,-8.003173828125,-3.78804931640625,-108.62804878048782,330.2134146341464,42.43902439024391,-109.0,24576.0,-161.25
2021-10-23 16:15:45.52,1020.394287109375,32.57,-43.725150203642364,9.435305318629386,30.793064569175332,6.06339111328125,-12.570605468750001,-0.533544921875,179.39024390243904,111.28048780487806,-13.841463414634148,-99.25,16419.5,-48.375
2021-10-23 16:15:45.70,1020.3759765625,32.55,-27.780959919643564,21.2029027628528,21.58645480747474,0.672314453125,-5.36834716796875,0.1303955078125,656.9817073170732,350.88414634146346,-89.60365853658537,-127.25,8273.0,-33.25
2021-10-23 16:15:45.89,1020.354248046875,32.53,-77.72699782572721,6.402828325121719,74.61563637069878,10.2055419921875,-8.62823486328125,8.79212646484375,-792.5304878048781,-614.5121951219513,659.2378048780488,-140.5,-16392.0,-172.25
2021-10-23 16:15:46.10,1020.400146484375,32.52,-83.30979765926904,-1.6432787345249897,76.92144848005094,2.71617431640625,-9.888525390625,-0.4940673828125,57.59146341463415,-57.28658536585366,-24.35975609756098,-112.125,-16390.375,-100.875
2021-10-23 16:15:46.28,1020.3662109375,32.48,-43.279343034829324,-15.011579153446228,63.39034389153298,3.4734252929687504,-6.953430175781251,4.9185424804687505,722.7743902439025,124.51219512195124,-324.1158536585366,-112.5,116.5,-16.5
2021-10-23 16:15:46.46,1020.38720703125,32.48,-75.93840025942205,-13.161856689152797,86.45706522800721,4.4789062500000005,2.48289794921875,7.533630371093751,-419.4817073170732,-303.3536585365854,347.7439024390244,-112.875,-8201.875,-117.125
2021-10-23 16:15:46.66,1020.362548828125,32.5,-72.17839989673577,-17.009846296190798,69.08691207282119,3.4919677734375,-12.38577880859375,-4.14573974609375,64.72560975609757,203.2317073170732,-96.46341463414635,-127.625,-26.75,-148.25
2021-10-23 16:15:46.85,1020.405029296875,32.48,-89.16399253509977,-17.60942353061478,69.25699516422826,3.8173583984375004,-8.34052734375,-1.1005859375,-78.01829268292684,32.5,-38.23170731707317,-96.625,-16394.125,-109.5
