Date-Time,Pressure (hPa),Temperature (°C),Roll,Pitch,Yaw ,X Acc (g),Y Acc (g),Z Acc (g),Gyro X (°/s),Gyro Y (°/s),Gyro Z (°/s),Mag X (µT),Mag Y (µT),Mag Z (µT)
2021-10-23 16:58:07.44,1020.8720703125,24.74,-1.752820945554293,5.065267126301159,175.80129437984783,-9.86041259765625,-0.13817138671875,0.10168457031250001,0.06097560975609757,0.24390243902439027,0.09146341463414635,-336.25,134.125,-122.0
2021-10-23 16:58:07.63,1020.8720703125,24.53,-3.091919842538313,11.533783506265452,170.60188584762162,-9.86041259765625,-0.14176025390625002,0.17585449218750002,0.09146341463414635,0.15243902439024393,-0.030487804878048783,-336.125,138.75,-121.5
2021-10-23 16:58:07.81,1021.211669921875,24.53,-4.0690233767795165,19.749588707026444,164.47847802313015,-9.865197753906251,-0.136376953125,0.19080810546875002,0.030487804878048783,0.12195121951219513,0.0,-340.125,137.375,-125.875
2021-10-23 16:58:08.01,1021.201904296875,24.54,-5.0265008265789834,30.517319047895263,157.17533452032472,-9.86759033203125,-0.14415283203125,0.20157470703125002,0.06097560975609757,0.0,0.06097560975609757,-337.75,135.75,-122.875
2021-10-23 16:58:08.20,1021.20556640625,24.55,-6.582186696802433,43.78738430697652,148.43907792757022,-9.859216308593751,-0.14176025390625002,0.22789306640625,0.06097560975609757,0.030487804878048783,0.06097560975609757,-333.625,136.875,-123.75
2021-10-23 16:58:08.38,1021.19580078125,24.55,-10.045095564876435,58.9398854241977,137.86668225968128,-9.868188476562501,-0.13697509765625002,0.20516357421875,0.09146341463414635,0.12195121951219513,0.0,-339.75,135.625,-124.5
2021-10-23 16:58:08.57,1021.212158203125,24.55,-18.87040212298802,73.4861748531452,122.66781113024936,-9.869982910156251,-0.14534912109375,0.2009765625,0.030487804878048783,0.09146341463414635,0.030487804878048783,-340.75,137.875,-129.375
2021-10-23 16:58:08.78,1021.205322265625,24.55,-53.99322834908616,84.20298365196071,82.62537098747474,-9.874169921875001,-0.14833984375,0.19738769531250003,0.0,0.12195121951219513,-0.030487804878048783,-337.75,136.0,-123.75
2021-10-23 16:58:08.99,1021.2373046875,24.55,-143.41398427485387,83.86624210602606,-10.300902932032669,-9.880151367187501,-0.14594726562500002,0.18841552734375,0.06097560975609757,0.09146341463414635,0.0,-338.875,133.625,-127.125
2021-10-23 16:58:09.23,1021.198974609375,24.55,-166.0515062948862,79.8696641970455,-35.473291435284715,-9.8538330078125,-0.14415283203125,0.212939453125,0.06097560975609757,-0.06097560975609757,0.0,-337.625,136.5,-126.375
2021-10-23 16:58:09.41,1021.23486328125,24.54,-174.0075033505758,77.53195205738602,-45.33304661361525,-9.8586181640625,-0.13099365234375002,0.23925781250000003,0.12195121951219513,-0.030487804878048783,0.030487804878048783,-337.25,138.125,-123.0
2021-10-23 16:58:09.59,1021.229248046875,24.54,-178.0435747651972,76.28671481154274,-50.878072600717026,-9.856225585937501,-0.14893798828125002,0.22191162109375,0.09146341463414635,-0.030487804878048783,0.0,-338.25,134.75,-124.125
2021-10-23 16:58:09.80,1021.2353515625,24.53,179.44407566848403,75.62232218010637,-54.77644279949358,-9.866992187500001,-0.1471435546875,0.2189208984375,0.09146341463414635,0.030487804878048783,0.0,-337.625,136.25,-125.625
2021-10-23 16:58:09.98,1021.234130859375,24.55,177.4861586589997,75.42521399383561,-57.9954068302014,-9.86041259765625,-0.13278808593750002,0.22908935546875,0.030487804878048783,0.030487804878048783,0.0,-334.0,139.375,-120.75
2021-10-23 16:58:10.16,1021.220458984375,24.55,176.50878203154514,75.3732768775623,-60.118826124090845,-9.861010742187501,-0.14415283203125,0.22071533203125002,0.0,0.09146341463414635,0.0,-338.0,133.875,-126.0
2021-10-23 16:58:10.36,1021.21240234375,24.56,175.7730128850715,75.4330863895246,-62.0153818069839,-9.85084228515625,-0.14176025390625002,0.2308837890625,0.030487804878048783,-0.06097560975609757,0.030487804878048783,-336.75,138.375,-124.375
2021-10-23 16:58:10.54,1021.218994140625,24.56,175.4086595634291,75.52622548468332,-63.51596377317122,-9.856225585937501,-0.13996582031250002,0.22550048828125002,-0.030487804878048783,0.06097560975609757,0.06097560975609757,-333.75,136.5,-124.0
2021-10-23 16:58:10.72,1021.1806640625,24.57,175.2840602018916,75.7212861920784,-64.69765298968187,-9.85443115234375,-0.12919921875,0.208154296875,0.030487804878048783,0.06097560975609757,0.030487804878048783,-339.875,134.125,-125.0
2021-10-23 16:58:10.92,1021.248046875,24.57,175.37146509733068,75.82668587277219,-65.74325430126922,-9.853234863281251,-0.1375732421875,0.21652832031250002,0.06097560975609757,0.1829268292682927,0.030487804878048783,-336.125,138.25,-124.625
2021-10-23 16:58:11.10,1021.214111328125,24.57,175.75883346061133,75.87564863388661,-66.51166110126609,-9.856225585937501,-0.1435546875,0.2021728515625,0.09146341463414635,0.09146341463414635,0.0,-335.75,138.0,-127.0
2021-10-23 16:58:11.28,1021.21826171875,24.57,175.93586480405253,76.18746853416533,-67.38066434971662,-9.86878662109375,-0.136376953125,0.2069580078125,0.030487804878048783,0.06097560975609757,-0.030487804878048783,-334.75,135.25,-120.25
2021-10-23 16:58:11.48,1021.219482421875,24.56,176.34505135546988,76.32675954478523,-68.10064415742414,-9.85562744140625,-0.13218994140625,0.212939453125,0.030487804878048783,-0.06097560975609757,0.0,-337.75,139.75,-124.625
2021-10-23 16:58:11.67,1021.234375,24.56,176.79263204383645,76.64742403257667,-68.69896445115583,-9.85443115234375,-0.136376953125,0.270361328125,0.0,0.24390243902439027,0.0,-338.625,135.25,-122.25
2021-10-23 16:58:11.86,1021.264892578125,24.57,177.49967741530307,76.77848948340267,-69.09044203336987,-9.86280517578125,-0.14534912109375,0.21174316406250002,0.030487804878048783,-0.12195121951219513,0.0,-337.25,135.75,-123.75
2021-10-23 16:58:12.06,1021.2431640625,24.57,178.2138603786303,76.81199334441571,-69.52416457847292,-9.865197753906251,-0.13996582031250002,0.18602294921875,0.06097560975609757,0.09146341463414635,0.030487804878048783,-334.875,137.75,-124.5
2021-10-23 16:58:12.25,1021.25732421875,24.57,178.86082188299903,76.98348450866634,-69.98858810932211,-9.85682373046875,-0.13817138671875,0.21832275390625003,0.0,-0.030487804878048783,0.0,-337.125,137.75,-124.25
2021-10-23 16:58:12.43,1021.25634765625,24.56,179.4589801891408,77.24740443575334,-70.42081953419736,-9.87177734375,-0.13996582031250002,0.18721923828125,0.06097560975609757,0.0,0.030487804878048783,-342.5,135.625,-122.375
2021-10-23 16:58:12.61,1021.260986328125,24.56,-179.78462691391292,77.4072938343156,-70.7434730731126,-9.843066406250001,-0.1435546875,0.23028564453125003,0.06097560975609757,0.06097560975609757,0.0,-339.75,137.5,-124.625
2021-10-23 16:58:12.81,1021.201171875,24.57,-179.00728174008012,77.55355546390741,-71.0860341968549,-9.862207031250001,-0.14833984375,0.22191162109375,0.09146341463414635,0.030487804878048783,0.09146341463414635,-338.25,138.25,-124.125
2021-10-23 16:58:13.00,1021.25634765625,24.57,-178.29416121336305,77.69601727115486,-71.4853735885775,-9.8705810546875,-0.13458251953125,0.21353759765625002,0.09146341463414635,0.15243902439024393,0.030487804878048783,-336.25,137.25,-123.375
2021-10-23 16:58:13.18,1021.239990234375,24.58,-177.39949009007765,77.75662686692534,-71.74750891468167,-9.86280517578125,-0.1375732421875,0.21832275390625003,0.030487804878048783,0.0,0.0,-334.75,137.125,-126.5
2021-10-23 16:58:13.38,1021.239501953125,24.59,-176.57629177985808,77.96628478903362,-72.01962071272341,-9.859216308593751,-0.1435546875,0.23327636718750003,0.09146341463414635,0.0,0.0,-336.375,135.5,-124.5
2021-10-23 16:58:13.57,1021.224609375,24.59,-175.81312425257113,78.14799368002078,-72.37322842776955,-9.866992187500001,-0.14056396484375,0.22191162109375,0.06097560975609757,0.030487804878048783,-0.06097560975609757,-335.125,138.5,-123.75
2021-10-23 16:58:13.75,1021.244140625,24.58,-174.9655979635445,78.26391270425,-72.65713417426176,-9.874169921875001,-0.1495361328125,0.19798583984375,0.09146341463414635,0.12195121951219513,0.030487804878048783,-337.75,139.75,-125.875
2021-10-23 16:58:13.95,1021.259521484375,24.58,-174.349624768902,78.55522548088035,-73.0855433818146,-9.872973632812501,-0.13398437500000002,0.19559326171875002,0.12195121951219513,-0.2134146341463415,0.030487804878048783,-337.25,137.375,-121.25
2021-10-23 16:58:14.13,1021.235107421875,24.58,-173.48636980468098,78.72401424912218,-73.30159047531822,-9.85084228515625,-0.1351806640625,0.22250976562500002,0.06097560975609757,0.030487804878048783,0.030487804878048783,-336.75,135.25,-124.5
2021-10-23 16:58:14.32,1021.24951171875,24.58,-172.47868155144684,78.83337234586511,-73.40190607075091,-9.8705810546875,-0.1543212890625,0.21234130859375003,0.06097560975609757,0.0,0.06097560975609757,-338.125,137.125,-126.75
2021-10-23 16:58:14.52,1021.230224609375,24.58,-171.77036224157126,79.05302585926327,-73.7504928682839,-9.86878662109375,-0.13996582031250002,0.19559326171875002,0.030487804878048783,-0.06097560975609757,0.09146341463414635,-335.0,137.375,-122.375
2021-10-23 16:58:14.71,1021.241455078125,24.58,-170.89150400399146,79.27569338089182,-73.91892130346032,-9.857421875,-0.14594726562500002,0.22669677734375002,0.06097560975609757,0.030487804878048783,0.06097560975609757,-337.75,136.125,-123.875
2021-10-23 16:58:14.90,1021.26171875,24.56,-170.02314075934544,79.42920802429762,-74.10237926568067,-9.869982910156251,-0.1495361328125,0.19798583984375,0.0,0.1829268292682927,0.06097560975609757,-338.375,137.375,-124.5
2021-10-23 16:58:15.10,1021.24267578125,24.57,-169.2067906395807,79.71726558204135,-74.27836877663017,-9.8586181640625,-0.15372314453125002,0.20755615234375002,0.06097560975609757,0.0,0.030487804878048783,-339.25,137.5,-121.25
2021-10-23 16:58:15.29,1021.237548828125,24.57,-168.4105704982604,79.90484336218984,-74.49213149046757,-9.8634033203125,-0.13817138671875,0.20875244140625002,0.06097560975609757,0.24390243902439027,0.030487804878048783,-335.375,134.875,-121.5
2021-10-23 16:58:15.47,1021.256591796875,24.57,-167.48139155922004,80.09730904430525,-74.59111367517939,-9.869982910156251,-0.15133056640625,0.22849121093750002,0.030487804878048783,0.09146341463414635,0.030487804878048783,-338.125,138.75,-123.5
2021-10-23 16:58:15.66,1021.269287109375,24.57,-166.56283971262798,80.29326428429292,-74.6559595151547,-9.86759033203125,-0.16090087890625002,0.19678955078125002,0.030487804878048783,0.06097560975609757,0.06097560975609757,-335.125,135.375,-120.625
2021-10-23 16:58:15.85,1021.2373046875,24.57,-165.834124091768,80.4557843647165,-74.94180961310447,-9.865197753906251,-0.13278808593750002,0.2021728515625,0.030487804878048783,0.06097560975609757,0.0,-337.75,140.125,-123.5
2021-10-23 16:58:16.04,1021.285888671875,24.58,-164.9120981057852,80.61450363541643,-75.02494063630519,-9.85682373046875,-0.1495361328125,0.20336914062500003,0.09146341463414635,0.030487804878048783,-0.030487804878048783,-339.125,139.75,-124.375
2021-10-23 16:58:16.23,1021.2822265625,24.58,-164.1507343406416,80.81953465095599,-75.224884751044,-9.871179199218751,-0.13099365234375002,0.20396728515625,0.06097560975609757,-0.06097560975609757,0.030487804878048783,-340.0,137.625,-123.5
2021-10-23 16:58:16.43,1021.2705078125,24.58,-163.40621066007213,81.04198474804748,-75.41861671735872,-9.86280517578125,-0.13218994140625,0.19858398437500002,0.030487804878048783,-0.030487804878048783,0.030487804878048783,-336.125,137.25,-121.125
2021-10-23 16:58:16.61,1021.24755859375,24.58,-162.5615420410412,81.27847912285256,-75.50726216582997,-9.859814453125,-0.13398437500000002,0.22490234375,0.09146341463414635,0.06097560975609757,0.030487804878048783,-338.625,138.75,-122.0
2021-10-23 16:58:16.79,1021.262451171875,24.58,-161.55999546655957,81.35102843819763,-75.48291647931562,-9.862207031250001,-0.13458251953125,0.22071533203125002,0.0,0.06097560975609757,0.030487804878048783,-340.25,136.375,-126.875
2021-10-23 16:58:16.99,1021.25048828125,24.57,-160.69523073950407,81.55792314681473,-75.55563648665569,-9.859814453125,-0.14415283203125,0.21473388671875002,0.09146341463414635,0.09146341463414635,0.09146341463414635,-334.5,140.0,-122.5
2021-10-23 16:58:17.18,1021.228271484375,24.58,-159.76700008909094,81.640931610052,-75.55671945104328,-9.871179199218751,-0.13876953125000002,0.19379882812500002,0.09146341463414635,0.15243902439024393,0.0,-339.0,134.0,-125.5
2021-10-23 16:58:17.37,1021.227783203125,24.57,-158.71942764350325,81.8024830646763,-75.4464919532544,-9.855029296875001,-0.14415283203125,0.22310791015625,0.09146341463414635,-0.2134146341463415,-0.030487804878048783,-336.75,137.75,-126.125
2021-10-23 16:58:17.57,1021.234619140625,24.57,-157.91148922885174,82.01776542963184,-75.51711838502372,-9.85562744140625,-0.1351806640625,0.20516357421875,0.09146341463414635,-0.030487804878048783,0.030487804878048783,-336.125,136.875,-123.25
2021-10-23 16:58:17.76,1021.221435546875,24.57,-156.93680787185565,82.22986117313901,-75.41178859206425,-9.874169921875001,-0.14774169921875002,0.21174316406250002,0.09146341463414635,-0.09146341463414635,-0.030487804878048783,-338.375,139.125,-124.125
2021-10-23 16:58:17.95,1021.224365234375,24.55,-155.79543705728761,82.35159450783259,-75.15639897049638,-9.869384765625,-0.15252685546875,0.23507080078125,0.06097560975609757,0.06097560975609757,0.030487804878048783,-339.625,134.875,-126.625
2021-10-23 16:58:18.15,1021.227783203125,24.56,-154.96816640250762,82.6161989761424,-75.15455853312231,-9.8753662109375,-0.14893798828125002,0.20755615234375002,0.030487804878048783,0.09146341463414635,0.0,-337.0,143.625,-123.0
2021-10-23 16:58:18.33,1021.252197265625,24.57,-154.0374551468254,82.8549862306732,-75.01686950734279,-9.8657958984375,-0.13996582031250002,0.22729492187500003,0.030487804878048783,-0.030487804878048783,0.030487804878048783,-341.5,137.625,-123.0
2021-10-23 16:58:18.51,1021.29833984375,24.57,-153.1268777189586,82.956504767964,-74.96445283310744,-9.864001464843751,-0.13398437500000002,0.22310791015625,0.15243902439024393,-0.09146341463414635,0.0,-338.125,137.75,-126.25
2021-10-23 16:58:18.71,1021.227783203125,24.56,-152.3530257309128,83.13913903783954,-74.9720959911353,-9.86878662109375,-0.14534912109375,0.18482666015625002,0.0,-0.030487804878048783,0.0,-336.25,140.0,-122.75
2021-10-23 16:58:18.90,1021.269775390625,24.55,-151.5677568588272,83.2951185369091,-74.95062667552155,-9.87357177734375,-0.14654541015625,0.18781738281250002,0.06097560975609757,0.1829268292682927,0.06097560975609757,-338.25,137.625,-122.875
2021-10-23 16:58:19.08,1021.26806640625,24.55,-150.59936210447205,83.41682196663,-74.76979606540728,-9.87177734375,-0.14415283203125,0.21054687500000002,0.06097560975609757,-0.030487804878048783,0.0,-337.625,137.375,-125.25
2021-10-23 16:58:19.27,1021.22607421875,24.53,-149.56891769809468,83.66270007992996,-74.44076886283943,-9.86160888671875,-0.15192871093750002,0.21832275390625003,0.030487804878048783,0.06097560975609757,0.12195121951219513,-340.25,137.25,-121.75
2021-10-23 16:58:19.46,1021.20849609375,24.55,-148.35491751949618,83.90407614684509,-73.93656381923488,-9.8657958984375,-0.14893798828125002,0.24344482421875002,0.030487804878048783,-0.1829268292682927,0.030487804878048783,-335.625,138.625,-121.375
2021-10-23 16:58:19.64,1021.206787109375,24.55,-147.83085437854615,83.9073592515736,-74.17589570275968,-9.865197753906251,-0.14056396484375,0.16329345703125,0.06097560975609757,0.0,0.0,-337.375,138.25,-125.875
2021-10-23 16:58:19.85,1021.24169921875,24.55,-147.2187323609405,84.05817779502318,-74.25485513527705,-9.87177734375,-0.12979736328125002,0.19439697265625003,0.09146341463414635,0.39634146341463417,0.0,-338.0,137.0,-123.125
2021-10-23 16:58:20.05,1021.2265625,24.55,-146.2076449041035,84.2374779921965,-73.93236623585759,-9.84964599609375,-0.13218994140625,0.2201171875,0.030487804878048783,-0.12195121951219513,-0.06097560975609757,-339.0,139.25,-124.875
2021-10-23 16:58:20.23,1021.220947265625,24.56,-145.1064930047479,84.38619293832166,-73.50212235965779,-9.865197753906251,-0.14594726562500002,0.21832275390625003,0.09146341463414635,0.0,-0.030487804878048783,-337.25,136.25,-123.25
2021-10-23 16:58:20.41,1021.258056640625,24.57,-144.06023566709086,84.48325118493878,-73.14917842449269,-9.869982910156251,-0.14534912109375,0.22310791015625,0.06097560975609757,-0.06097560975609757,0.030487804878048783,-336.75,137.125,-125.75
2021-10-23 16:58:20.61,1021.264892578125,24.56,-143.1822450419094,84.66854862288424,-72.90124393344698,-9.8657958984375,-0.13936767578125,0.20516357421875,0.06097560975609757,0.030487804878048783,0.0,-337.5,140.25,-123.875
2021-10-23 16:58:20.80,1021.284912109375,24.55,-142.49614065976934,84.79601779002401,-72.85434529317037,-9.86759033203125,-0.12919921875,0.19379882812500002,0.09146341463414635,-0.09146341463414635,0.0,-339.25,140.0,-125.625
2021-10-23 16:58:20.99,1021.229736328125,24.54,-141.90448298299762,84.72720225118195,-72.97931733444098,-9.86041259765625,-0.13936767578125,0.19738769531250003,0.12195121951219513,0.3353658536585366,0.030487804878048783,-340.125,135.875,-131.0
2021-10-23 16:58:21.19,1021.24951171875,24.54,-140.83965664039434,84.87987890896514,-72.51225462394599,-9.86160888671875,-0.14295654296875002,0.21174316406250002,0.030487804878048783,0.030487804878048783,0.0,-341.0,134.0,-125.625
2021-10-23 16:58:21.37,1021.2724609375,24.54,-137.4744346806738,85.94033865202162,-69.2328418264558,-9.87237548828125,-0.13338623046875,0.20994873046875,0.06097560975609757,0.30487804878048785,0.09146341463414635,-335.5,133.875,-89.0
2021-10-23 16:58:21.55,1021.251953125,24.64,7.945709019641872,60.53872048369864,81.77502456023474,-8.52056884765625,0.62745361328125,6.922924804687501,133.35365853658539,-498.8414634146342,53.59756097560976,-247.875,175.5,8199.125
2021-10-23 16:58:21.76,1021.233154296875,24.61,11.16826307693302,35.60218414379442,74.517165409454,0.40673828125000006,-0.65736083984375,9.530236816406251,11.55487804878049,-233.71951219512198,-58.65853658536586,-126.25,207.0,-24598.875
2021-10-23 16:58:21.94,1021.169677734375,24.61,18.31550097403765,14.467635288035147,71.94730838955059,9.715661621093751,4.6463867187500005,0.48090820312500004,71.76829268292684,-261.5243902439025,-55.73170731707317,-90.75,215.375,-73.625
2021-10-23 16:58:22.13,1021.23828125,24.62,21.12634513419022,2.825545345349831,75.99150582347805,8.058801269531251,4.3682495117187505,0.2811279296875,-66.40243902439025,5.060975609756098,44.35975609756098,-65.875,196.5,-70.875
2021-10-23 16:58:22.33,1021.237060546875,24.64,23.124584133044795,-12.508605259000412,82.17231446531147,9.031982421875,3.0625,0.23985595703125,-25.64024390243903,-32.22560975609756,108.81097560975611,-33.125,168.375,-68.625
2021-10-23 16:58:22.52,1021.2333984375,24.65,21.640884382971755,-25.8170645065943,85.38496244347803,9.928002929687501,1.0371826171875,0.19918212890625,-31.158536585365855,-8.506097560975611,52.46951219512196,-22.875,154.875,-71.25
2021-10-23 16:58:22.70,1021.2666015625,24.67,24.061650740454024,-37.70593281097527,84.07123125179557,9.8418701171875,0.82962646484375,-1.8016113281250001,3.4451219512195124,-5.975609756097562,-10.213414634146343,-23.75,158.0,-75.0
2021-10-23 16:58:22.88,1021.265625,24.67,26.52068021857596,-48.05647560488684,83.23374029210436,9.6432861328125,1.03658447265625,-0.9905273437500001,2.8963414634146343,-6.646341463414635,-2.7439024390243905,-23.625,155.875,-85.25
2021-10-23 16:58:23.10,1021.265625,24.66,30.316365926045712,-57.967629337007,80.82036819553316,9.57449951171875,0.9785644531250001,-1.3320678710937501,4.298780487804878,-22.865853658536587,0.27439024390243905,-26.25,161.375,-85.625
2021-10-23 16:58:23.28,1021.223876953125,24.67,37.96049399501199,-63.94025169655658,75.46524497146835,9.5523681640625,1.83570556640625,-1.8614257812500001,34.48170731707317,25.792682926829272,-1.2804878048780488,-29.125,160.75,-67.375
2021-10-23 16:58:23.46,1021.251220703125,24.67,33.42948250331881,-65.92426443522825,80.69410160354361,9.956713867187501,-0.62506103515625,2.2191162109375,61.40243902439025,44.54268292682927,-8.536585365853659,-50.625,180.25,-60.375
2021-10-23 16:58:23.67,1021.24951171875,24.64,50.083596772801656,-67.91995392683879,57.69298139497389,9.33404541015625,3.2897949218750004,1.3793212890625002,-85.03048780487805,-94.29878048780489,-81.85975609756099,-63.875,195.75,-73.25
2021-10-23 16:58:23.85,1021.19970703125,24.62,42.59213934656162,-54.27979427469766,80.11409688014513,10.47889404296875,3.7826660156250003,2.0049804687500004,261.1280487804878,360.06097560975616,-49.81707317073171,-106.75,206.125,-61.625
2021-10-23 16:58:24.04,1021.253662109375,24.57,28.985217999912443,-44.86920495818271,86.98181578584854,4.0392700195312505,4.727734375000001,9.1288818359375,-29.08536585365854,157.43902439024393,52.743902439024396,-117.0,187.25,-28.75
2021-10-23 16:58:24.24,1021.215576171875,24.58,23.518809721649255,-39.82949252921729,85.64810088687321,1.7382080078125002,2.88006591796875,8.3823974609375,-9.695121951219512,10.975609756097562,55.335365853658544,-96.75,168.375,-17.25
2021-10-23 16:58:24.42,1021.256103515625,24.59,21.585894804713043,-41.046472898092766,78.56516117375905,3.4183959960937504,1.45648193359375,8.55167236328125,-41.646341463414636,-113.04878048780489,-37.16463414634147,-79.75,170.625,-36.25
2021-10-23 16:58:24.60,1021.214599609375,24.62,25.914101169145404,-40.957462429375255,74.16598861499173,5.53104248046875,2.3351562500000003,7.495947265625,71.09756097560977,-33.41463414634146,-34.268292682926834,-84.125,189.625,-49.5
2021-10-23 16:58:24.80,1021.2041015625,24.63,28.146631428723598,-31.998113762830307,77.31873736376924,4.880859375,6.0281005859375005,6.172851562500001,72.28658536585367,194.2378048780488,59.29878048780488,-97.625,191.25,-30.5
2021-10-23 16:58:24.98,1021.217041015625,24.64,31.633112435312597,-18.847742730246143,77.04534140123954,0.36905517578125,6.898999023437501,7.664624023437501,74.45121951219512,177.6829268292683,11.097560975609756,-131.5,207.75,-30.25
2021-10-23 16:58:25.17,1021.2001953125,24.66,37.25015215399768,-10.63939608586793,72.85842292978487,-2.3608764648437504,8.63421630859375,6.2524047851562505,44.48170731707317,37.743902439024396,4.0548780487804885,-136.125,216.875,-45.75
2021-10-23 16:58:25.39,1021.232177734375,24.71,41.289743387749034,-6.192479254328759,69.25595447098277,-2.4224853515625,8.42127685546875,4.47830810546875,-4.634146341463415,-21.03658536585366,26.76829268292683,-118.0,206.25,-41.375
2021-10-23 16:58:25.58,1021.219970703125,24.71,43.96277147978376,-0.3966933559093,70.64800262322215,-1.5438110351562502,8.69044189453125,5.78704833984375,8.01829268292683,80.1829268292683,36.463414634146346,-108.375,199.75,-32.625
2021-10-23 16:58:25.76,1021.22314453125,24.72,47.801644244610216,-2.7239499072917965,70.64317895385027,0.8170654296875001,8.452978515625,4.256396484375,0.09146341463414635,-9.481707317073171,49.72560975609756,-86.75,192.125,-42.0
2021-10-23 16:58:25.95,1021.248291015625,24.8,52.65902614166925,-7.499675959408332,71.17529730850967,1.85006103515625,9.6743896484375,4.3144165039062505,21.890243902439025,-28.201219512195124,67.07317073170732,-64.875,184.125,-67.375
2021-10-23 16:58:26.14,1021.256591796875,24.78,54.67207616458826,-11.588882471629086,71.31380716272197,4.06259765625,8.6336181640625,3.73720703125,-9.51219512195122,8.01829268292683,33.65853658536586,-56.875,177.5,-63.625
2021-10-23 16:58:26.33,1021.24853515625,24.78,58.02000268031499,-12.261276621133215,69.17916481282504,3.18990478515625,8.440417480468751,3.20186767578125,13.689024390243903,2.25609756097561,-6.798780487804879,-62.0,184.125,-63.875
2021-10-23 16:58:26.52,1021.207763671875,24.8,57.84639747367487,-10.561685612005082,66.96680240146382,2.3865966796875,8.75025634765625,3.41600341796875,-33.56707317073171,16.463414634146343,-10.914634146341465,-73.375,177.25,-48.375
2021-10-23 16:58:26.73,1021.234619140625,24.78,55.384950782510984,-8.19691141630731,64.43274111313478,1.5880737304687502,8.007958984375001,4.78037109375,-42.19512195121951,2.9268292682926833,-19.664634146341466,-81.0,179.5,-40.375
2021-10-23 16:58:26.91,1021.2255859375,24.79,54.09381183388714,-6.554688432420856,62.86652186733782,1.47681884765625,8.00855712890625,5.78824462890625,-3.7500000000000004,9.603658536585368,-5.335365853658537,-86.125,182.75,-26.0
2021-10-23 16:58:27.09,1021.2080078125,24.81,53.152391841536144,-4.69778299590679,61.39601140544814,1.0479492187500001,8.19996337890625,5.3629638671875,-9.878048780487806,15.51829268292683,1.1890243902439026,-90.75,169.625,-14.75
2021-10-23 16:58:27.29,1021.22607421875,24.81,43.99715763232606,-7.4799112730456185,65.80225591139256,4.342529296875,6.0903076171875,6.513195800781251,-128.50609756097563,-26.189024390243905,16.73780487804878,-61.0,116.25,-24580.5
2021-10-23 16:58:27.47,1021.265869140625,24.84,27.796777459959852,-19.236599863543667,65.28130665658217,4.7719970703125005,1.2668701171875,10.17742919921875,-204.08536585365854,-167.9268292682927,22.80487804878049,-28.75,80.625,-33.375
2021-10-23 16:58:27.66,1021.20849609375,24.86,33.90093043033378,-15.011203919755603,67.6125047670233,2.60970458984375,5.1398559570312505,8.86749267578125,113.81097560975611,55.82317073170732,-36.55487804878049,-26.625,96.5,-46.375
2021-10-23 16:58:27.86,1021.223876953125,24.84,41.26796918106781,-9.234383610696694,80.37924414868475,-1.2728515625,8.357275390625,11.51966552734375,186.7987804878049,170.3658536585366,179.2378048780488,-37.75,113.0,-17.375
2021-10-23 16:58:28.05,1021.218017578125,24.82,39.33946325406794,-13.727243423378917,97.17185521089215,3.2509155273437504,7.20823974609375,11.726025390625,61.28048780487806,86.21951219512196,284.51219512195127,-47.125,111.0,-16391.0
2021-10-23 16:58:28.23,1021.22998046875,24.83,17.543720871814045,-21.07597501199369,108.6882967844634,10.242626953125,2.1951904296875,12.1243896484375,-11.310975609756099,-31.463414634146343,141.5548780487805,-64.75,116.375,24578.375
2021-10-23 16:58:28.44,1021.2421875,24.85,21.853450358022435,-14.89140349763774,99.46405599341755,5.298962402343751,3.4728271484375,11.87615966796875,126.00609756097562,106.6158536585366,-17.713414634146343,-126.75,148.875,21.875
2021-10-23 16:58:28.62,1021.2294921875,24.88,27.329972932514625,-28.615842822061275,90.55319691032062,9.481787109375,5.2672607421875,10.23126220703125,94.14634146341464,-210.1829268292683,96.12804878048782,-116.375,150.0,18.375
2021-10-23 16:58:28.81,1021.211669921875,24.9,35.41513568766296,-32.0727801398587,71.44011116799665,10.855126953125001,4.73251953125,9.424365234375001,63.90243902439025,-119.14634146341464,-157.19512195121953,-141.0,171.25,18.625
2021-10-23 16:58:29.01,1021.21484375,24.92,40.4908154594425,-31.98533998486284,54.76554829142476,3.299365234375,6.0669799804687505,9.346606445312501,11.49390243902439,-172.77439024390245,-95.82317073170732,-171.5,170.75,20.0
2021-10-23 16:58:29.20,1021.261474609375,24.92,34.36318587917091,-25.244681767779447,45.884508939952745,-1.1909057617187502,0.12800292968750002,12.361254882812501,-30.213414634146343,-88.10975609756099,-127.71341463414635,-186.625,170.75,24.25
2021-10-23 16:58:29.38,1021.214599609375,24.91,29.013055670300393,-19.9542119227319,36.55382479083827,0.9989013671875001,1.07008056640625,8.978747558593751,-43.963414634146346,-50.335365853658544,-138.1707317073171,-226.625,154.625,44.875
2021-10-23 16:58:29.58,1021.2529296875,24.91,19.930163179151748,-12.305431102948189,34.198744573566636,-1.8506591796875,-1.7441894531250002,8.150317382812501,-26.76829268292683,12.408536585365855,-57.10365853658537,-197.375,135.0,53.375
2021-10-23 16:58:29.77,1021.273681640625,24.9,15.604698259749453,-9.703278440045493,34.042635252769415,-0.040673828125000006,-0.8182617187500001,10.26236572265625,21.06707317073171,-1.4939024390243905,-6.5548780487804885,-192.375,144.125,50.25
2021-10-23 16:58:29.95,1021.228759765625,24.88,11.986739978685204,-8.070394603454597,33.617617708634974,0.44860839843750006,-0.15013427734375,10.1887939453125,0.12195121951219513,-0.1829268292682927,-7.225609756097562,-191.25,139.75,52.25
2021-10-23 16:58:30.15,1021.246337890625,24.84,8.721723028266739,-6.502770893062165,33.644868295704846,0.13398437500000002,-0.49765625,10.1457275390625,0.030487804878048783,-0.030487804878048783,0.06097560975609757,-194.5,138.375,49.5
2021-10-23 16:58:30.35,1021.249755859375,24.82,6.196504713496627,-5.28273310278113,33.777264818182,0.14415283203125,-0.49825439453125003,10.132568359375,0.0,-0.030487804878048783,0.06097560975609757,-194.625,140.875,55.625
2021-10-23 16:58:30.53,1021.2529296875,24.8,4.223559265179797,-4.301773463157188,33.809851811660415,0.13458251953125,-0.49885253906250004,10.1289794921875,0.09146341463414635,0.0,0.030487804878048783,-198.625,138.75,49.0
2021-10-23 16:58:30.71,1021.228515625,24.8,2.5586486758297404,-3.444078052221494,33.879603589751795,0.05802001953125,-0.6077148437500001,10.1050537109375,0.15243902439024393,-0.030487804878048783,0.15243902439024393,-197.375,137.5,50.5
2021-10-23 16:58:30.92,1021.281005859375,24.79,1.3891122080384408,-2.869879001056167,33.97210228661136,0.13398437500000002,-0.5030395507812501,10.10206298828125,0.030487804878048783,-0.06097560975609757,0.030487804878048783,-194.125,135.25,49.875
2021-10-23 16:58:31.10,1021.226318359375,24.8,0.4900713968297984,-2.45304350892892,34.22927804892868,0.15073242187500002,-0.51141357421875,10.10565185546875,0.030487804878048783,0.030487804878048783,0.030487804878048783,-193.75,138.375,48.25
2021-10-23 16:58:31.29,1021.26416015625,24.79,-0.1933014857786892,-2.1201781880793353,34.54732677807379,0.13996582031250002,-0.50064697265625,10.09368896484375,0.030487804878048783,0.0,0.030487804878048783,-193.75,140.375,46.375
2021-10-23 16:58:31.49,1021.201904296875,24.78,-0.770313957445965,-1.8364649427580748,34.626608246170484,0.136376953125,-0.5090209960937501,10.0966796875,0.0,-0.06097560975609757,-0.030487804878048783,-196.125,137.375,46.125
2021-10-23 16:58:31.68,1021.254150390625,24.77,-1.1933117012271872,-1.633266384073502,34.83511425288383,0.14295654296875002,-0.50543212890625,10.09010009765625,0.06097560975609757,0.030487804878048783,0.030487804878048783,-193.625,138.75,53.125
2021-10-23 16:58:31.86,1021.239990234375,24.77,-1.535227741904267,-1.4610215891940288,34.9384677694655,0.14056396484375,-0.50064697265625,10.088305664062501,0.06097560975609757,0.0,0.0,-196.125,138.625,49.75
2021-10-23 16:58:32.05,1021.267578125,24.74,-1.797816509469738,-1.321386132041979,35.030894922604,0.1375732421875,-0.49645996093750006,10.088305664062501,0.09146341463414635,0.0,-0.030487804878048783,-197.0,139.25,47.875
2021-10-23 16:58:32.24,1021.218994140625,24.75,-2.021654557104795,-1.2006772037176403,35.04606427235581,0.136376953125,-0.50064697265625,10.084716796875,0.030487804878048783,0.06097560975609757,0.0,-194.875,136.0,52.875
2021-10-23 16:58:32.43,1021.259033203125,24.73,-2.1809969676929843,-1.1309813859958768,35.16333018687994,0.1471435546875,-0.49945068359375006,10.086511230468751,0.030487804878048783,0.030487804878048783,0.0,-196.25,139.375,50.375
2021-10-23 16:58:32.62,1021.215087890625,24.74,-2.3439785954492383,-1.0418264452600436,35.01856038490059,0.136376953125,-0.5036376953125,10.087109375,0.06097560975609757,-0.030487804878048783,0.030487804878048783,-199.125,135.5,46.125
2021-10-23 16:58:32.82,1021.24072265625,24.72,-2.467723251351223,-0.967651621645761,34.96387224826737,0.12919921875,-0.50782470703125,10.08411865234375,0.030487804878048783,0.030487804878048783,0.030487804878048783,-198.5,136.25,50.25
2021-10-23 16:58:33.00,1021.236083984375,24.72,-2.521859364330423,-0.931409497399339,35.06167602582688,0.13398437500000002,-0.4916748046875,10.0930908203125,0.06097560975609757,0.0,0.030487804878048783,-196.0,137.875,48.75
2021-10-23 16:58:33.18,1021.239013671875,24.72,-2.6082804796908126,-0.8874426132939915,34.99786775220709,0.1351806640625,-0.5072265625000001,10.09608154296875,0.0,0.030487804878048783,0.030487804878048783,-200.625,137.5,51.625
2021-10-23 16:58:33.38,1021.251708984375,24.72,-2.6720700932970565,-0.8517975336977244,34.968486445011585,0.13218994140625,-0.50782470703125,10.084716796875,0.0,0.06097560975609757,0.0,-199.875,137.5,50.25
2021-10-23 16:58:33.57,1021.26025390625,24.71,-2.691707486965112,-0.836966513678519,35.147356755911034,0.12501220703125002,-0.5102172851562501,10.082324218750001,0.09146341463414635,0.030487804878048783,0.06097560975609757,-193.625,137.875,51.0
2021-10-23 16:58:33.75,1021.241455078125,24.71,-2.734713686617466,-0.8105697032248588,35.10251789842505,0.1303955078125,-0.5060302734375001,10.071557617187501,0.06097560975609757,0.030487804878048783,0.0,-200.0,138.0,47.625
2021-10-23 16:58:33.98,1021.27685546875,24.69,-2.7453772114047283,-0.8121286014817122,35.27947697920402,0.12979736328125002,-0.5084228515625,10.07215576171875,-0.030487804878048783,0.0,0.030487804878048783,-195.375,139.75,51.125
2021-10-23 16:58:34.16,1021.249267578125,24.69,-2.7709316502575057,-0.7871267455653312,35.15861540784613,0.13458251953125,-0.4916748046875,10.095483398437501,0.0,0.06097560975609757,0.030487804878048783,-200.625,137.125,48.875
2021-10-23 16:58:34.34,1021.27294921875,24.68,-2.8122733789813763,-0.776180826605913,34.9567597708953,0.14654541015625,-0.5036376953125,10.089501953125001,0.06097560975609757,0.06097560975609757,0.0,-200.25,134.375,46.375
2021-10-23 16:58:34.55,1021.248046875,24.68,-2.7990030315070165,-0.7773985736062509,35.038070357648394,0.13218994140625,-0.49346923828125006,10.0739501953125,0.0,0.030487804878048783,0.0,-193.25,135.125,50.625
2021-10-23 16:58:34.73,1021.2841796875,24.67,-2.780583053250511,-0.8017530309896788,35.19570022039403,0.14475097656250002,-0.49825439453125003,10.09608154296875,0.06097560975609757,0.0,0.06097560975609757,-199.25,141.625,51.25
2021-10-23 16:58:34.92,1021.25146484375,24.68,-2.7854978974545386,-0.799441080583808,35.2206357720305,0.13876953125000002,-0.49526367187500003,10.085314941406251,-0.030487804878048783,0.030487804878048783,0.030487804878048783,-196.125,137.0,51.0
2021-10-23 16:58:35.14,1021.286865234375,24.67,-2.782484842179305,-0.816323409364044,35.2906238730694,0.15192871093750002,-0.49705810546875,10.091296386718751,0.030487804878048783,0.06097560975609757,0.06097560975609757,-197.375,139.125,50.0
2021-10-23 16:58:35.33,1021.304443359375,24.67,-2.789666933737949,-0.8192000677059744,35.25650849103959,0.15133056640625,-0.4940673828125,10.0978759765625,0.030487804878048783,0.06097560975609757,-0.030487804878048783,-197.375,137.0,51.125
2021-10-23 16:58:35.51,1021.30908203125,24.67,-2.79668649212112,-0.8033742628127138,35.1567632430073,0.141162109375,-0.48629150390625003,10.084716796875,0.030487804878048783,0.030487804878048783,0.06097560975609757,-196.875,134.75,51.375
2021-10-23 16:58:35.71,1021.306396484375,24.65,-2.800655537847514,-0.8005783859283498,35.1450970958722,0.14176025390625002,-0.49645996093750006,10.083520507812501,0.06097560975609757,0.030487804878048783,0.06097560975609757,-194.5,134.75,50.125
2021-10-23 16:58:35.89,1021.273681640625,24.64,-2.7928925476130386,-0.814288020142382,35.332038041825996,0.13936767578125,-0.509619140625,10.084716796875,0.030487804878048783,0.06097560975609757,0.06097560975609757,-194.375,139.375,52.125
2021-10-23 16:58:36.08,1021.29833984375,24.64,-2.798678098080728,-0.8064897063541784,35.278334817551276,0.141162109375,-0.49346923828125006,10.086511230468751,0.06097560975609757,0.0,0.0,-199.25,138.125,48.125
2021-10-23 16:58:36.29,1021.286376953125,24.64,-2.8363570509103346,-0.7965861152355574,35.200416103127814,0.13996582031250002,-0.5150024414062501,10.06318359375,0.030487804878048783,0.0,0.06097560975609757,-198.125,136.375,48.125
2021-10-23 16:58:36.47,1021.291015625,24.63,-2.809783140787798,-0.7980810744044395,35.37914002270687,0.12919921875,-0.5000488281250001,10.092492675781251,0.06097560975609757,0.030487804878048783,0.06097560975609757,-194.875,139.875,49.75
2021-10-23 16:58:36.66,1021.276611328125,24.63,-2.8398383649331613,-0.7730418418825854,35.28172567151073,0.12919921875,-0.5090209960937501,10.074548339843751,0.030487804878048783,0.030487804878048783,0.06097560975609757,-196.5,135.25,48.75
2021-10-23 16:58:36.84,1021.32177734375,24.63,-2.8329857059328765,-0.7924290703488845,35.36215101024445,0.14833984375,-0.5030395507812501,10.08411865234375,0.0,0.06097560975609757,0.0,-195.375,138.375,47.625
2021-10-23 16:58:37.03,1021.30908203125,24.63,-2.8195570631752584,-0.8019839136460744,35.53198159852226,0.13338623046875,-0.5090209960937501,10.10565185546875,0.0,0.0,0.0,-193.875,139.75,52.375
2021-10-23 16:58:37.22,1021.289794921875,24.63,-2.8047502393994996,-0.803820276035,35.67236213016179,0.13218994140625,-0.5012451171875001,10.094287109375001,0.030487804878048783,0.0,0.030487804878048783,-191.625,138.375,48.5
2021-10-23 16:58:37.42,1021.30322265625,24.63,-2.8244715475925037,-0.7834168989364523,35.55325884523347,0.13458251953125,-0.49705810546875,10.08770751953125,0.0,0.0,0.09146341463414635,-198.5,137.625,48.375
2021-10-23 16:58:37.61,1021.29541015625,24.62,-2.871688103356873,-0.7646331602256905,35.36929522020502,0.13936767578125,-0.5156005859375,10.089501953125001,0.030487804878048783,0.030487804878048783,0.030487804878048783,-197.875,134.875,51.75
2021-10-23 16:58:37.80,1021.2919921875,24.61,-2.822703339883646,-0.7874088699005956,35.53127092043654,0.13996582031250002,-0.48748779296875006,10.0930908203125,0.06097560975609757,0.0,0.030487804878048783,-194.0,139.625,52.0
2021-10-23 16:58:37.98,1021.319091796875,24.6,-2.8518012849496435,-0.7649355567296948,35.33847214868655,0.13458251953125,-0.50244140625,10.0906982421875,0.030487804878048783,0.0,0.030487804878048783,-200.0,136.25,46.875
2021-10-23 16:58:38.18,1021.2861328125,24.6,-2.8716426596438964,-0.7623403119620942,35.215940431190646,0.14534912109375,-0.50543212890625,10.09010009765625,0.030487804878048783,0.06097560975609757,0.030487804878048783,-197.875,135.25,51.75
2021-10-23 16:58:38.37,1021.270751953125,24.59,-2.85375409730386,-0.7600226405185475,35.28530007973863,0.12800292968750002,-0.50064697265625,10.086511230468751,0.030487804878048783,0.030487804878048783,0.030487804878048783,-196.25,138.125,52.875
2021-10-23 16:58:38.55,1021.28662109375,24.59,-2.8534261964962444,-0.7541479377485276,35.2132540221105,0.13697509765625002,-0.49885253906250004,10.092492675781251,0.09146341463414635,0.06097560975609757,0.030487804878048783,-197.25,136.0,46.5
2021-10-23 16:58:38.75,1021.296630859375,24.58,-2.852610162155525,-0.7584837415861609,35.200987324155165,0.13996582031250002,-0.504833984375,10.098474121093751,0.09146341463414635,0.06097560975609757,0.0,-196.625,136.5,50.75
2021-10-23 16:58:38.94,1021.302001953125,24.58,-2.8311866377489032,-0.7844614313389889,35.356957286594266,0.14295654296875002,-0.5042358398437501,10.1050537109375,0.030487804878048783,0.0,0.030487804878048783,-195.125,139.5,49.75
2021-10-23 16:58:39.12,1021.28515625,24.58,-2.8204821999607703,-0.7824931614636541,35.42462707748988,0.13398437500000002,-0.5000488281250001,10.092492675781251,0.06097560975609757,0.06097560975609757,0.030487804878048783,-197.875,140.125,50.25
2021-10-23 16:58:39.33,1021.341064453125,24.57,-2.838130073456987,-0.7795810959807661,35.45900575805187,0.13278808593750002,-0.5161987304687501,10.084716796875,0.030487804878048783,0.0,0.0,-193.25,136.375,50.25
2021-10-23 16:58:39.52,1021.2646484375,24.57,-2.8293487228927234,-0.7910209491622033,35.557932539811084,0.13876953125000002,-0.504833984375,10.10565185546875,0.030487804878048783,-0.030487804878048783,0.030487804878048783,-195.375,139.75,46.625
2021-10-23 16:58:39.70,1021.309814453125,24.56,-2.8348442061540315,-0.7856383396545544,35.47270648890603,0.1423583984375,-0.49645996093750006,10.10684814453125,0.06097560975609757,0.0,0.030487804878048783,-195.375,135.625,50.375
2021-10-23 16:58:39.90,1021.32958984375,24.56,-2.794298382250037,-0.8153738794587655,35.65010790118421,0.14774169921875002,-0.48928222656250003,10.084716796875,0.06097560975609757,0.0,0.0,-192.625,139.625,51.625
2021-10-23 16:58:40.09,1021.305419921875,24.55,-2.7944164951983055,-0.8225083282784813,35.65186099456705,0.15252685546875,-0.49287109375000004,10.103857421875,0.0,0.06097560975609757,0.09146341463414635,-193.25,136.625,51.625
2021-10-23 16:58:40.27,1021.29931640625,24.55,-2.820969986446578,-0.8037773231229163,35.50217685493489,0.14415283203125,-0.49765625,10.10206298828125,0.030487804878048783,0.030487804878048783,0.09146341463414635,-195.625,134.625,51.75
2021-10-23 16:58:40.47,1021.296630859375,24.55,-2.831042651318748,-0.7862294881785536,35.43402130057351,0.13398437500000002,-0.49765625,10.08770751953125,0.0,0.030487804878048783,0.0,-198.125,137.75,50.25
2021-10-23 16:58:40.66,1021.279296875,24.54,-2.8131429358190894,-0.7933481919782286,35.52033566124898,0.13996582031250002,-0.49586181640625004,10.100268554687501,0.030487804878048783,0.06097560975609757,0.030487804878048783,-194.125,138.25,51.375
2021-10-23 16:58:40.84,1021.27880859375,24.55,-2.8071145193563347,-0.7835659391404047,35.481429922753456,0.136376953125,-0.48688964843750004,10.099072265625,0.0,0.030487804878048783,0.0,-194.875,136.25,50.625
2021-10-23 16:58:41.05,1021.283447265625,24.53,-2.807085900588676,-0.8031793562214894,35.44540531116468,0.15791015625000002,-0.49287109375000004,10.082324218750001,0.06097560975609757,0.030487804878048783,0.030487804878048783,-197.0,137.75,46.625
2021-10-23 16:58:41.24,1021.274169921875,24.52,-2.8001781232536738,-0.8095944850783995,35.49306379882421,0.14475097656250002,-0.4940673828125,10.09608154296875,0.0,0.030487804878048783,0.0,-197.25,139.875,45.75
2021-10-23 16:58:41.42,1021.2724609375,24.52,-2.7889957527280433,-0.8003376196814999,35.45467537294221,0.141162109375,-0.48090820312500004,10.11103515625,0.0,0.06097560975609757,0.06097560975609757,-197.875,138.25,49.375
2021-10-23 16:58:41.60,1021.29296875,24.52,-2.823197012515814,-0.7937216727948747,35.17841265246911,0.15791015625000002,-0.4940673828125,10.108642578125,0.09146341463414635,0.030487804878048783,0.030487804878048783,-197.875,132.375,47.625
2021-10-23 16:58:41.80,1021.273681640625,24.52,-2.8072803386353997,-0.8201161633819141,35.20717649445806,0.15731201171875,-0.48928222656250003,10.103857421875,0.030487804878048783,-0.06097560975609757,0.06097560975609757,-196.5,137.25,49.625
2021-10-23 16:58:41.98,1021.265869140625,24.51,-2.8009970346229784,-0.813319196088852,35.18474230746066,0.1435546875,-0.48868408203125,10.101464843750001,0.030487804878048783,0.06097560975609757,0.030487804878048783,-195.875,135.75,50.25
2021-10-23 16:58:42.17,1021.300537109375,24.51,-2.8000252228585896,-0.8017778533702312,35.223537680723325,0.13398437500000002,-0.49825439453125003,10.09967041015625,0.030487804878048783,0.06097560975609757,0.06097560975609757,-195.25,136.75,47.5
2021-10-23 16:58:42.38,1021.2626953125,24.49,-2.7734558196314656,-0.820315634592155,35.37844097353141,0.14534912109375,-0.49047851562500006,10.094287109375001,0.030487804878048783,0.030487804878048783,0.0,-194.875,139.5,50.125
2021-10-23 16:58:42.57,1021.264892578125,24.49,-2.761083499281833,-0.8275680406590792,35.42356094919552,0.15073242187500002,-0.48748779296875006,10.113427734375001,0.06097560975609757,0.09146341463414635,0.030487804878048783,-194.0,136.875,52.875
2021-10-23 16:58:42.75,1021.254638671875,24.48,-2.768725581745674,-0.8073639355700155,35.3214034744183,0.13817138671875,-0.48270263671875,10.10565185546875,0.030487804878048783,0.0,0.0,-197.25,135.875,52.125
2021-10-23 16:58:42.96,1021.24169921875,24.48,-2.7850453367721126,-0.8233981140538108,35.26235508783614,0.160302734375,-0.49765625,10.088305664062501,0.09146341463414635,0.0,0.0,-196.0,135.5,52.25
2021-10-23 16:58:43.15,1021.241455078125,24.48,-2.771445102601149,-0.8269318927092345,35.31303667913679,0.14654541015625,-0.4880859375,10.113427734375001,0.030487804878048783,0.06097560975609757,0.030487804878048783,-193.625,136.125,53.25
2021-10-23 16:58:43.34,1021.232177734375,24.48,-2.7989714851502665,-0.8024683997892413,35.10255913426653,0.14594726562500002,-0.48868408203125,10.112231445312501,0.0,0.09146341463414635,0.030487804878048783,-202.0,136.0,49.625
2021-10-23 16:58:43.55,1021.259521484375,24.47,-2.7999981561803327,-0.8097342102460223,35.01302808715463,0.155517578125,-0.48449707031250006,10.094287109375001,0.0,0.030487804878048783,0.030487804878048783,-197.25,134.625,48.25
2021-10-23 16:58:43.73,1021.2412109375,24.48,-2.7855273967306586,-0.8307113529674207,35.1228906140004,0.15133056640625,-0.49526367187500003,10.11282958984375,0.0,0.0,0.0,-197.125,138.875,51.125
2021-10-23 16:58:43.91,1021.2822265625,24.47,-2.771096479431316,-0.8428199000347221,35.14900914935415,0.15731201171875,-0.48449707031250006,10.1026611328125,0.06097560975609757,0.06097560975609757,0.06097560975609757,-198.0,138.125,46.625
2021-10-23 16:58:44.12,1021.22119140625,24.45,-2.781441657577587,-0.844675415970166,35.04868206897916,0.15731201171875,-0.48688964843750004,10.09488525390625,0.0,0.0,0.06097560975609757,-199.625,136.375,45.125
2021-10-23 16:58:44.31,1021.237548828125,24.45,-2.7734813328360444,-0.8497409311362271,35.13258712551641,0.1495361328125,-0.49885253906250004,10.0930908203125,0.12195121951219513,0.09146341463414635,0.06097560975609757,-195.75,137.25,55.5
2021-10-23 16:58:44.50,1021.24853515625,24.45,-2.775590368388024,-0.8462038212304477,35.18483453672541,0.1471435546875,-0.49705810546875,10.0966796875,0.030487804878048783,0.09146341463414635,0.06097560975609757,-197.75,138.625,47.375
2021-10-23 16:58:44.69,1021.25927734375,24.44,-2.8122114371599736,-0.8111406242225335,35.01843054585229,0.13398437500000002,-0.50064697265625,10.1026611328125,0.0,0.0,0.0,-196.25,132.5,49.75
2021-10-23 16:58:44.89,1021.214599609375,24.44,-2.786891636940899,-0.8148052618307415,35.158750430589734,0.1351806640625,-0.49287109375000004,10.108642578125,0.030487804878048783,0.0,0.06097560975609757,-194.75,137.875,51.125
2021-10-23 16:58:45.07,1021.26416015625,24.43,-2.79808575700501,-0.8157353578389371,35.161052818599515,0.14594726562500002,-0.50184326171875,10.10086669921875,0.030487804878048783,0.030487804878048783,0.06097560975609757,-198.625,137.875,53.75
2021-10-23 16:58:45.25,1021.207763671875,24.43,-2.8087873033723736,-0.8061892638594482,35.091855706900695,0.13996582031250002,-0.49705810546875,10.109240722656251,0.030487804878048783,-0.030487804878048783,0.0,-197.875,136.0,45.5
2021-10-23 16:58:45.46,1021.236328125,24.43,-2.7826035767936004,-0.8349261163038959,35.31802820692121,0.14833984375,-0.50244140625,10.0978759765625,0.06097560975609757,0.030487804878048783,0.09146341463414635,-194.0,139.75,52.375
2021-10-23 16:58:45.65,1021.2548828125,24.42,-2.7636946906735234,-0.8490313864063854,35.43541217735219,0.15013427734375,-0.48988037109375004,10.108642578125,0.0,0.030487804878048783,0.0,-194.0,138.375,52.75
2021-10-23 16:58:45.83,1021.257080078125,24.42,-2.786189452424334,-0.8343807245888878,35.32647846232553,0.14774169921875002,-0.49586181640625004,10.11282958984375,0.030487804878048783,0.030487804878048783,0.09146341463414635,-196.875,135.625,46.875
2021-10-23 16:58:46.06,1021.242431640625,24.42,-2.778605999454563,-0.8408356742658926,35.3942593668605,0.1471435546875,-0.49287109375000004,10.100268554687501,0.0,0.0,0.0,-196.75,139.25,50.375
2021-10-23 16:58:46.24,1021.25341796875,24.42,-2.790088183223029,-0.8277290514018785,35.401183909319315,0.13876953125000002,-0.50244140625,10.1026611328125,0.06097560975609757,0.030487804878048783,0.06097560975609757,-194.875,136.625,52.375
2021-10-23 16:58:46.42,1021.266845703125,24.41,-2.813807667796242,-0.8158557445266503,35.3248697069326,0.1435546875,-0.5030395507812501,10.098474121093751,0.0,0.030487804878048783,0.030487804878048783,-198.0,137.0,48.625
2021-10-23 16:58:46.62,1021.21044921875,24.4,-2.8021598746236527,-0.8062257149795438,35.357891462064465,0.13338623046875,-0.49227294921875003,10.085314941406251,0.06097560975609757,0.0,0.030487804878048783,-197.125,138.5,52.625
2021-10-23 16:58:46.81,1021.258056640625,24.4,-2.8189187973219307,-0.8003315468429535,35.270947762725235,0.14654541015625,-0.49945068359375006,10.09488525390625,0.030487804878048783,0.06097560975609757,0.06097560975609757,-197.625,136.25,47.5
2021-10-23 16:58:46.99,1021.25244140625,24.39,-2.842573204820832,-0.7875413328690443,35.10866725530199,0.14534912109375,-0.50064697265625,10.1026611328125,0.030487804878048783,0.06097560975609757,0.06097560975609757,-198.0,134.25,46.875
2021-10-23 16:58:47.21,1021.2451171875,24.39,-2.84011085775039,-0.7923165795701316,35.1247928424983,0.14295654296875002,-0.50184326171875,10.092492675781251,0.030487804878048783,0.030487804878048783,0.06097560975609757,-196.25,136.25,53.125
2021-10-23 16:58:47.39,1021.251220703125,24.38,-2.8331394356132367,-0.7670714761909123,35.04584469998176,0.12740478515625,-0.48928222656250003,10.103857421875,0.09146341463414635,0.030487804878048783,0.0,-198.375,135.5,54.75
2021-10-23 16:58:47.57,1021.239013671875,24.37,-2.8048995850111793,-0.7802931675920152,35.1999607345684,0.1351806640625,-0.49705810546875,10.109240722656251,0.06097560975609757,0.030487804878048783,0.06097560975609757,-197.125,140.0,51.875
2021-10-23 16:58:47.77,1021.27197265625,24.37,-2.820380447388043,-0.7899280874077362,35.1703190048335,0.14893798828125002,-0.5042358398437501,10.098474121093751,0.0,0.030487804878048783,0.030487804878048783,-196.625,136.25,45.0
2021-10-23 16:58:47.96,1021.273681640625,24.37,-2.8222122009914345,-0.7785217745062434,35.135188212970725,0.13398437500000002,-0.49645996093750006,10.100268554687501,0.030487804878048783,0.030487804878048783,0.0,-195.375,135.0,48.0
2021-10-23 16:58:48.15,1021.245361328125,24.37,-2.8138308741090694,-0.7761914436915235,35.23721116679259,0.12620849609375,-0.504833984375,10.101464843750001,0.06097560975609757,-0.030487804878048783,-0.06097560975609757,-196.875,139.25,49.0
2021-10-23 16:58:48.35,1021.258056640625,24.37,-2.821644533302043,-0.7727553087915504,35.24236258783501,0.1351806640625,-0.5042358398437501,10.099072265625,0.030487804878048783,0.030487804878048783,0.030487804878048783,-197.0,137.5,46.125
2021-10-23 16:58:48.54,1021.264892578125,24.36,-2.8243336340482603,-0.7794534029121541,35.33456456972633,0.13458251953125,-0.5090209960937501,10.10206298828125,-0.030487804878048783,0.0,-0.030487804878048783,-196.5,139.25,49.25
2021-10-23 16:58:48.72,1021.206298828125,24.36,-2.835865509535252,-0.7722579058658373,35.279001592522576,0.13697509765625002,-0.5030395507812501,10.10086669921875,0.030487804878048783,0.030487804878048783,-0.030487804878048783,-197.375,136.75,48.625
2021-10-23 16:58:48.91,1021.238037109375,24.35,-2.849489442619603,-0.7670769857442923,35.1560055727549,0.14176025390625002,-0.50064697265625,10.103259277343751,0.030487804878048783,0.030487804878048783,0.0,-195.625,133.75,44.375
2021-10-23 16:58:49.11,1021.243408203125,24.35,-2.840879510904318,-0.778562230203418,35.235151643722844,0.13996582031250002,-0.5060302734375001,10.11103515625,0.030487804878048783,0.030487804878048783,0.0,-196.25,138.25,49.125
2021-10-23 16:58:49.30,1021.25341796875,24.34,-2.817228674156648,-0.7949507273115913,35.346404280331036,0.14295654296875002,-0.49645996093750006,10.112231445312501,0.030487804878048783,0.030487804878048783,-0.030487804878048783,-194.75,138.375,50.5
2021-10-23 16:58:49.49,1021.2138671875,24.33,-2.870265736093792,-0.7645149806657203,35.00925571197102,0.141162109375,-0.5060302734375001,10.10206298828125,0.030487804878048783,0.030487804878048783,0.030487804878048783,-197.625,130.25,46.25
2021-10-23 16:58:49.70,1021.22119140625,24.33,-2.8544170249171823,-0.7648848410607992,34.99049540880725,0.13697509765625002,-0.49227294921875003,10.10086669921875,0.030487804878048783,0.0,0.030487804878048783,-196.375,135.0,52.625
2021-10-23 16:58:49.88,1021.23095703125,24.32,-2.8233239105630212,-0.7889966677572506,35.20727388518884,0.1375732421875,-0.5036376953125,10.0966796875,0.0,0.030487804878048783,0.030487804878048783,-194.875,139.625,52.875
2021-10-23 16:58:50.06,1021.2451171875,24.32,-2.8091776547112866,-0.7994976208379186,35.2553913597689,0.14415283203125,-0.4940673828125,10.116418457031251,0.030487804878048783,0.0,0.030487804878048783,-191.625,134.375,51.375
2021-10-23 16:58:50.26,1021.218017578125,24.31,-2.8015723647681985,-0.8001485224914345,35.36246080423169,0.13458251953125,-0.5000488281250001,10.104455566406251,-0.030487804878048783,0.030487804878048783,0.0,-193.625,137.625,48.75
2021-10-23 16:58:50.45,1021.23583984375,24.31,-2.777569095182711,-0.8357923214362268,35.59609891324364,0.15133056640625,-0.5042358398437501,10.108642578125,0.030487804878048783,0.030487804878048783,0.030487804878048783,-191.25,139.375,53.125
2021-10-23 16:58:50.64,1021.22021484375,24.31,-2.786580910749663,-0.8275196194726225,35.6011486999123,0.14056396484375,-0.49765625,10.09967041015625,0.0,0.0,0.030487804878048783,-196.125,138.625,50.375
2021-10-23 16:58:50.84,1021.21923828125,24.3,-2.823592373079853,-0.8053316184826432,35.379766578398616,0.14475097656250002,-0.50244140625,10.10684814453125,0.06097560975609757,0.030487804878048783,0.030487804878048783,-198.5,135.0,45.125
2021-10-23 16:58:51.02,1021.223876953125,24.3,-2.795316373958739,-0.8312497609519512,35.538707995577724,0.15073242187500002,-0.49526367187500003,10.10565185546875,0.06097560975609757,0.0,0.030487804878048783,-196.125,141.25,50.75
2021-10-23 16:58:51.21,1021.230712890625,24.3,-2.804234996894074,-0.8184059356294617,35.535176360253644,0.13697509765625002,-0.50184326171875,10.11761474609375,0.030487804878048783,0.0,0.030487804878048783,-197.75,139.25,50.625
2021-10-23 16:58:51.40,1021.277587890625,24.29,-2.835679961294046,-0.8233745994337149,35.43405843918945,0.15731201171875,-0.5084228515625,10.10086669921875,-0.030487804878048783,0.030487804878048783,0.030487804878048783,-198.375,137.375,47.625
2021-10-23 16:58:51.59,1021.23193359375,24.29,-2.820655254981834,-0.8125893824427136,35.402934946653026,0.13936767578125,-0.48688964843750004,10.1050537109375,0.06097560975609757,0.0,0.06097560975609757,-198.125,138.25,50.0
2021-10-23 16:58:51.77,1021.2421875,24.29,-2.838870911618731,-0.7968322691218238,35.329157095961286,0.13817138671875,-0.5060302734375001,10.103857421875,0.06097560975609757,0.030487804878048783,0.0,-195.125,134.875,53.0
2021-10-23 16:58:51.98,1021.24609375,24.27,-2.8497456844271203,-0.782368085102485,35.26592770321031,0.1351806640625,-0.504833984375,10.0978759765625,0.06097560975609757,0.030487804878048783,0.09146341463414635,-198.0,136.875,47.5
2021-10-23 16:58:52.17,1021.2080078125,24.27,-2.8507162999822397,-0.7760472432516439,35.20390358873199,0.13697509765625002,-0.49765625,10.10565185546875,0.030487804878048783,-0.030487804878048783,0.0,-194.25,133.875,51.5
2021-10-23 16:58:52.35,1021.2333984375,24.27,-2.832900844341787,-0.7816423850183465,35.28674273807729,0.13458251953125,-0.49765625,10.115222167968751,0.0,-0.030487804878048783,0.06097560975609757,-197.25,139.25,48.75
2021-10-23 16:58:52.53,1021.239501953125,24.26,-2.8192497453495746,-0.7931176069975259,35.29909038394187,0.14534912109375,-0.49287109375000004,10.11163330078125,0.06097560975609757,-0.030487804878048783,0.0,-198.0,138.625,47.25
2021-10-23 16:58:52.74,1021.21533203125,24.26,-2.835544394981559,-0.7972103086760807,35.20731258222163,0.15073242187500002,-0.50184326171875,10.1098388671875,0.030487804878048783,0.0,-0.030487804878048783,-197.625,135.75,51.375
2021-10-23 16:58:52.92,1021.24462890625,24.26,-2.828552104708704,-0.8047924077811704,35.274039267162124,0.14415283203125,-0.5042358398437501,10.1170166015625,0.030487804878048783,0.06097560975609757,0.06097560975609757,-195.0,137.125,53.125
2021-10-23 16:58:53.11,1021.2412109375,24.26,-2.8232692752042414,-0.816565943110334,35.31923790271717,0.1495361328125,-0.49945068359375006,10.119409179687501,-0.030487804878048783,0.030487804878048783,0.0,-196.375,138.125,49.875
2021-10-23 16:58:53.32,1021.2734375,24.26,-2.824076031424134,-0.8080613467862738,35.34270769866188,0.136376953125,-0.5012451171875001,10.095483398437501,0.0,0.030487804878048783,0.0,-198.0,138.875,52.875
2021-10-23 16:58:53.50,1021.272705078125,24.25,-2.8155249635016935,-0.7989760770119948,35.36032599442155,0.1351806640625,-0.49346923828125006,10.106250000000001,0.0,0.030487804878048783,0.030487804878048783,-193.125,135.375,52.125
2021-10-23 16:58:53.68,1021.26708984375,24.24,-2.843417865446874,-0.7733473697527092,35.11961449727452,0.141162109375,-0.49466552734375,10.113427734375001,0.030487804878048783,0.06097560975609757,0.0,-197.375,132.375,48.75
2021-10-23 16:58:53.90,1021.205810546875,24.24,-2.8305605438525037,-0.7783304735605988,35.13753515670395,0.13817138671875,-0.49705810546875,10.108642578125,0.09146341463414635,-0.030487804878048783,0.030487804878048783,-195.625,136.0,51.5
2021-10-23 16:58:54.08,1021.24462890625,24.23,-2.8041932758250887,-0.8044990874002992,35.28588378764391,0.14833984375,-0.49586181640625004,10.108642578125,0.030487804878048783,0.030487804878048783,0.030487804878048783,-195.125,139.0,50.125
2021-10-23 16:58:54.27,1021.201904296875,24.23,-2.823182028468193,-0.7865948607019924,35.11456899461986,0.14176025390625002,-0.49526367187500003,10.12359619140625,0.06097560975609757,0.030487804878048783,0.0,-200.75,136.0,48.75
2021-10-23 16:58:54.48,1021.228759765625,24.23,-2.821252190801537,-0.7881129351738848,35.070832554886294,0.14594726562500002,-0.49227294921875003,10.09368896484375,0.030487804878048783,0.06097560975609757,0.030487804878048783,-195.875,134.75,49.75
2021-10-23 16:58:54.67,1021.23583984375,24.23,-2.779306093870818,-0.8071600586601348,35.265496619789495,0.13817138671875,-0.48629150390625003,10.11402587890625,-0.030487804878048783,0.0,0.0,-196.0,140.375,53.375
2021-10-23 16:58:54.85,1021.2353515625,24.23,-2.8027065128209587,-0.8133799743450267,35.19129861659575,0.15372314453125002,-0.5000488281250001,10.1098388671875,-0.030487804878048783,0.0,0.030487804878048783,-196.875,135.5,50.125
2021-10-23 16:58:55.06,1021.248779296875,24.21,-2.8275887551667127,-0.8184456509308082,35.134433587147505,0.153125,-0.5084228515625,10.098474121093751,0.0,0.030487804878048783,-0.030487804878048783,-197.25,135.875,49.75
2021-10-23 16:58:55.25,1021.240478515625,24.21,-2.829908392697046,-0.8205335974745986,35.190917350614704,0.14176025390625002,-0.509619140625,10.104455566406251,0.06097560975609757,0.0,0.0,-196.5,137.75,50.375
2021-10-23 16:58:55.44,1021.24267578125,24.21,-2.8246211241268804,-0.8161733408302658,35.20394520949122,0.14056396484375,-0.49885253906250004,10.10684814453125,0.06097560975609757,0.0,0.030487804878048783,-196.625,137.125,48.0
2021-10-23 16:58:55.64,1021.216796875,24.2,-2.8353669675801116,-0.8161580777199868,35.14319602073535,0.14654541015625,-0.5036376953125,10.099072265625,0.09146341463414635,-0.06097560975609757,0.030487804878048783,-198.5,136.625,49.875
2021-10-23 16:58:55.83,1021.24072265625,24.2,-2.84087485725848,-0.8023439452191208,35.064276849403825,0.13817138671875,-0.49885253906250004,10.115222167968751,0.06097560975609757,-0.030487804878048783,0.06097560975609757,-199.25,136.375,49.25
2021-10-23 16:58:56.01,1021.25146484375,24.2,-2.842187628415047,-0.8009993992341247,35.04266372095243,0.14534912109375,-0.5000488281250001,10.1170166015625,0.0,0.06097560975609757,0.06097560975609757,-197.75,136.125,54.0
2021-10-23 16:58:56.20,1021.25146484375,24.19,-2.850233828755562,-0.7944841411371679,34.9637701978542,0.14774169921875002,-0.50184326171875,10.119409179687501,0.06097560975609757,0.12195121951219513,0.030487804878048783,-198.875,135.5,52.25
2021-10-23 16:58:56.40,1021.22509765625,24.19,-2.8532349861241872,-0.7896095092575597,34.97145812625958,0.13577880859375002,-0.5090209960937501,10.1098388671875,0.06097560975609757,0.0,0.0,-197.25,136.125,51.625
2021-10-23 16:58:56.59,1021.257080078125,24.2,-2.8502462662604455,-0.7873509558771254,35.01227261409048,0.13338623046875,-0.5084228515625,10.112231445312501,0.06097560975609757,-0.030487804878048783,0.030487804878048783,-197.875,137.375,51.625
2021-10-23 16:58:56.78,1021.241455078125,24.19,-2.8630709575156352,-0.7869194624557401,34.84186468747802,0.15192871093750002,-0.49586181640625004,10.110437011718751,0.030487804878048783,0.0,0.0,-200.0,134.0,50.0
2021-10-23 16:58:56.99,1021.24169921875,24.18,-2.8328009934526794,-0.8203926119646194,34.93236726809371,0.15970458984375002,-0.49227294921875003,10.12060546875,0.030487804878048783,0.0,0.030487804878048783,-197.125,137.5,48.875
2021-10-23 16:58:57.17,1021.259765625,24.18,-2.800275346357278,-0.8251333569135635,35.056118870847534,0.14056396484375,-0.49107666015625,10.1158203125,0.09146341463414635,0.030487804878048783,0.0,-197.875,139.375,49.5
2021-10-23 16:58:57.35,1021.271484375,24.17,-2.8154082047149567,-0.8214171202267804,34.95204203860119,0.15252685546875,-0.49645996093750006,10.115222167968751,0.0,0.06097560975609757,-0.030487804878048783,-199.0,135.375,47.0
2021-10-23 16:58:57.56,1021.27294921875,24.17,-2.799020426560941,-0.8423147461066963,35.09395601336861,0.15013427734375,-0.49885253906250004,10.10804443359375,0.0,-0.030487804878048783,-0.030487804878048783,-195.75,138.5,48.0
2021-10-23 16:58:57.75,1021.270263671875,24.17,-2.7924308538598392,-0.8324395674524077,35.10224250379185,0.141162109375,-0.49047851562500006,10.11761474609375,0.0,0.030487804878048783,-0.030487804878048783,-197.125,136.75,53.75
2021-10-23 16:58:57.93,1021.232421875,24.16,-2.795577280929527,-0.8243848605374877,35.07022321691581,0.14415283203125,-0.49346923828125006,10.11282958984375,0.030487804878048783,0.030487804878048783,-0.030487804878048783,-194.375,134.0,50.625
2021-10-23 16:58:58.14,1021.2529296875,24.16,-2.7770438390806023,-0.8226224191367671,35.182027835520685,0.136376953125,-0.49346923828125006,10.10684814453125,0.06097560975609757,0.030487804878048783,0.0,-195.375,138.0,50.625
2021-10-23 16:58:58.32,1021.25634765625,24.16,-2.80281673770352,-0.808452352490138,35.1105336399672,0.14056396484375,-0.5030395507812501,10.122998046875,-0.030487804878048783,0.030487804878048783,-0.030487804878048783,-196.875,135.25,49.375
2021-10-23 16:58:58.51,1021.27197265625,24.15,-2.7651657698411056,-0.8325451668891866,35.31075392448062,0.14893798828125002,-0.4880859375,10.116418457031251,0.030487804878048783,0.06097560975609757,0.0,-195.875,140.75,50.5
2021-10-23 16:58:58.71,1021.266357421875,24.15,-2.7994270303293383,-0.8217229887455272,35.14832453359353,0.15192871093750002,-0.49825439453125003,10.109240722656251,0.0,0.030487804878048783,0.0,-196.75,133.625,48.75
2021-10-23 16:58:58.90,1021.232666015625,24.14,-2.785053902960092,-0.8373341555680772,35.24610666524609,0.15133056640625,-0.49287109375000004,10.1170166015625,-0.030487804878048783,0.030487804878048783,0.030487804878048783,-196.625,138.875,51.75
2021-10-23 16:58:59.08,1021.24853515625,24.14,-2.7911860760589393,-0.8335610819239966,35.29456289511137,0.141162109375,-0.50244140625,10.116418457031251,0.0,0.0,0.0,-199.25,140.125,50.625
2021-10-23 16:58:59.28,1021.269775390625,24.15,-2.808841028830926,-0.845153252954999,35.282638047080795,0.1591064453125,-0.50543212890625,10.10684814453125,0.0,0.030487804878048783,0.06097560975609757,-197.5,137.625,49.0
2021-10-23 16:58:59.46,1021.2919921875,24.13,-2.8083613570425237,-0.8427442126556164,35.24613982605422,0.15013427734375,-0.49346923828125006,10.12000732421875,0.030487804878048783,0.0,-0.030487804878048783,-197.25,136.875,49.375
2021-10-23 16:58:59.64,1021.279052734375,24.13,-2.795708324837003,-0.818519989561704,35.247204965355905,0.1303955078125,-0.48629150390625003,10.121203613281251,0.0,0.030487804878048783,0.0,-196.75,137.125,51.875
2021-10-23 16:58:59.83,1021.261962890625,24.13,-2.8078223449873057,-0.8119551917031268,35.09045773380328,0.14893798828125002,-0.48928222656250003,10.12000732421875,0.06097560975609757,-0.06097560975609757,0.0,-199.625,135.375,49.125
2021-10-23 16:59:00.03,1021.278564453125,24.12,-2.792743148554366,-0.8220087399435162,35.24299003365876,0.14056396484375,-0.50064697265625,10.107446289062501,0.0,0.030487804878048783,0.030487804878048783,-194.625,138.5,51.0
2021-10-23 16:59:00.21,1021.28955078125,24.12,-2.7669756572354385,-0.829199354635929,35.40553041524364,0.14056396484375,-0.49287109375000004,10.1146240234375,0.06097560975609757,0.06097560975609757,0.0,-194.625,139.625,50.125
2021-10-23 16:59:00.40,1021.28955078125,24.12,-2.7729022518086666,-0.826856141100926,35.435694594450794,0.14475097656250002,-0.49945068359375006,10.11761474609375,0.06097560975609757,0.06097560975609757,0.0,-194.75,137.375,48.75
2021-10-23 16:59:00.61,1021.26025390625,24.11,-2.775659512237352,-0.8346516061478809,35.47109951626431,0.15073242187500002,-0.49705810546875,10.109240722656251,0.030487804878048783,0.030487804878048783,0.0,-195.875,138.375,51.0
2021-10-23 16:59:00.79,1021.28515625,24.11,-2.7772502819572873,-0.8444218289262132,35.46869938971285,0.15671386718750002,-0.49047851562500006,10.1170166015625,-0.030487804878048783,0.030487804878048783,-0.030487804878048783,-196.75,138.25,52.125
2021-10-23 16:59:00.98,1021.303466796875,24.11,-2.812970168037474,-0.8216637729005709,35.29740597761025,0.1471435546875,-0.50064697265625,10.127185058593751,0.0,0.06097560975609757,0.030487804878048783,-197.875,134.875,50.625
2021-10-23 16:59:01.17,1021.315673828125,24.1,-2.8049432117947726,-0.8220883299271202,35.30438346574889,0.14594726562500002,-0.49346923828125006,10.108642578125,0.06097560975609757,0.030487804878048783,-0.030487804878048783,-196.375,137.375,49.625
2021-10-23 16:59:01.36,1021.316162109375,24.09,-2.8131519833346257,-0.8291868758721969,35.263975033738234,0.155517578125,-0.49645996093750006,10.115222167968751,-0.030487804878048783,0.030487804878048783,0.0,-197.375,136.875,50.875
2021-10-23 16:59:01.55,1021.301025390625,24.09,-2.814600808172394,-0.8210946376185629,35.24130311360623,0.14176025390625002,-0.49705810546875,10.118212890625001,0.030487804878048783,0.0,0.0,-197.5,137.25,49.25
2021-10-23 16:59:01.75,1021.30810546875,24.09,-2.809525489767559,-0.8169014767033133,35.293786764133586,0.1375732421875,-0.49705810546875,10.1026611328125,-0.030487804878048783,0.0,0.06097560975609757,-196.375,138.0,52.0
2021-10-23 16:59:01.93,1021.28369140625,24.09,-2.793296591190289,-0.8332884445464173,35.383330187244944,0.15073242187500002,-0.4940673828125,10.11402587890625,0.030487804878048783,0.0,0.0,-195.0,138.375,49.25
2021-10-23 16:59:02.12,1021.26220703125,24.08,-2.822059669453513,-0.8163378942659048,35.166893264093304,0.15013427734375,-0.49466552734375,10.1218017578125,0.030487804878048783,0.0,0.0,-200.0,134.875,49.375
2021-10-23 16:59:02.32,1021.281982421875,24.08,-2.8199635929219213,-0.811740207997443,35.1009756270192,0.14654541015625,-0.49227294921875003,10.113427734375001,0.06097560975609757,0.030487804878048783,0.0,-197.125,135.5,47.375
2021-10-23 16:59:02.51,1021.28076171875,24.07,-2.775068802478118,-0.8270109549127139,35.282810222227205,0.14056396484375,-0.48449707031250006,10.12479248046875,0.06097560975609757,-0.030487804878048783,0.0,-196.75,140.875,50.125
2021-10-23 16:59:02.70,1021.266845703125,24.07,-2.77305216168862,-0.8376169936767868,35.37113293428757,0.15073242187500002,-0.49945068359375006,10.121203613281251,0.030487804878048783,0.06097560975609757,0.06097560975609757,-197.125,139.75,49.875
2021-10-23 16:59:02.90,1021.268310546875,24.07,-2.801220456745789,-0.8319358194115358,35.21015815753343,0.155517578125,-0.49466552734375,10.101464843750001,0.0,0.0,0.030487804878048783,-196.625,133.875,48.0
2021-10-23 16:59:03.10,1021.323486328125,24.07,-2.814596467482356,-0.8287947775075475,35.12013618080845,0.153125,-0.49645996093750006,10.11761474609375,0.030487804878048783,0.030487804878048783,-0.030487804878048783,-197.0,134.875,52.875
2021-10-23 16:59:03.28,1021.28173828125,24.07,-2.8219528873055517,-0.8154115533411137,35.138699038809456,0.136376953125,-0.50543212890625,10.113427734375001,0.0,0.06097560975609757,0.0,-197.375,137.25,53.875
2021-10-23 16:59:03.46,1021.2919921875,24.06,-2.816354631670435,-0.8029976062176245,35.066297809067656,0.13996582031250002,-0.48928222656250003,10.116418457031251,0.09146341463414635,0.0,0.06097560975609757,-199.25,136.5,49.875
2021-10-23 16:59:03.67,1021.278564453125,24.05,-2.7970956493132504,-0.8156683016319393,35.121881612709636,0.14774169921875002,-0.49227294921875003,10.121203613281251,0.09146341463414635,0.0,0.0,-196.75,137.5,52.0
2021-10-23 16:59:03.85,1021.280517578125,24.05,-2.7953013174183763,-0.8305908749727964,35.17359805526461,0.15252685546875,-0.49945068359375006,10.1158203125,0.030487804878048783,0.0,0.06097560975609757,-195.25,136.625,50.625
2021-10-23 16:59:04.04,1021.277587890625,24.06,-2.808648954713416,-0.8199299765544316,35.06293980686855,0.1471435546875,-0.49526367187500003,10.124194335937501,0.030487804878048783,0.030487804878048783,-0.030487804878048783,-198.125,135.25,46.25
2021-10-23 16:59:04.24,1021.287353515625,24.04,-2.788843694844526,-0.8422527627422626,35.25963357815995,0.14833984375,-0.504833984375,10.108642578125,0.030487804878048783,0.06097560975609757,0.0,-193.375,138.5,53.5
2021-10-23 16:59:04.43,1021.276123046875,24.04,-2.784549203427706,-0.8392197541037137,35.24575675260086,0.14893798828125002,-0.48988037109375004,10.1170166015625,0.06097560975609757,0.030487804878048783,0.030487804878048783,-198.125,137.75,52.5
2021-10-23 16:59:04.61,1021.276611328125,24.04,-2.791872915938077,-0.8335283822324662,35.182689905561794,0.15013427734375,-0.49227294921875003,10.122399902343751,0.030487804878048783,0.030487804878048783,0.06097560975609757,-200.375,138.125,49.5
2021-10-23 16:59:04.82,1021.2705078125,24.04,-2.8117470346152036,-0.8348970015027799,35.08750059759734,0.1543212890625,-0.50064697265625,10.1170166015625,0.030487804878048783,-0.030487804878048783,0.0,-198.75,136.0,47.875
2021-10-23 16:59:05.00,1021.28759765625,24.04,-2.8039964338343206,-0.8335008663576033,35.06355337653662,0.1495361328125,-0.48988037109375004,10.11103515625,0.06097560975609757,0.030487804878048783,0.030487804878048783,-197.25,136.125,48.75
2021-10-23 16:59:05.19,1021.301513671875,24.04,-2.765930392008552,-0.8502354611316943,35.254957104473704,0.14774169921875002,-0.48928222656250003,10.12479248046875,0.06097560975609757,0.06097560975609757,0.0,-193.25,138.375,51.125
2021-10-23 16:59:05.39,1021.29296875,24.03,-2.7337779424834574,-0.8631197937622773,35.38254741740112,0.15192871093750002,-0.47911376953125,10.11761474609375,0.06097560975609757,0.030487804878048783,0.030487804878048783,-194.875,139.0,50.375
2021-10-23 16:59:05.58,1021.2421875,24.04,-2.7451646056006522,-0.853781846091589,35.41225153209674,0.14295654296875002,-0.49586181640625004,10.12598876953125,0.0,0.0,0.030487804878048783,-196.75,138.625,50.125
2021-10-23 16:59:05.76,1021.26611328125,24.03,-2.7668398845720548,-0.8396311507598623,35.39914263179841,0.1423583984375,-0.50244140625,10.108642578125,0.030487804878048783,0.06097560975609757,-0.06097560975609757,-196.375,137.625,48.25
2021-10-23 16:59:05.95,1021.23193359375,24.02,-2.7869549211271347,-0.8190801240583666,35.37809356388624,0.13577880859375002,-0.5042358398437501,10.11881103515625,0.030487804878048783,0.06097560975609757,0.0,-198.75,138.875,50.25
2021-10-23 16:59:06.14,1021.281982421875,24.02,-2.786531861045722,-0.826377812658084,35.391228777985084,0.15133056640625,-0.49107666015625,10.122399902343751,-0.06097560975609757,0.030487804878048783,0.06097560975609757,-194.25,136.375,48.75
2021-10-23 16:59:06.33,1021.23291015625,24.02,-2.7917078429001823,-0.8257030528864305,35.445293127948496,0.1435546875,-0.5030395507812501,10.121203613281251,0.0,0.06097560975609757,0.0,-196.125,138.75,51.625
2021-10-23 16:59:06.55,1021.240478515625,24.02,-2.811990954318142,-0.80240212554368,35.260809978876146,0.14295654296875002,-0.49107666015625,10.09189453125,0.06097560975609757,0.06097560975609757,0.0,-196.875,133.875,48.125
2021-10-23 16:59:06.74,1021.22265625,24.02,-2.81307449394438,-0.8183867028203765,35.239224139689334,0.15791015625000002,-0.49645996093750006,10.11761474609375,0.030487804878048783,0.030487804878048783,0.030487804878048783,-196.125,136.25,49.125
2021-10-23 16:59:06.92,1021.267822265625,24.01,-2.8123991922531695,-0.8162860315482633,35.13284556992736,0.15372314453125002,-0.48629150390625003,10.12479248046875,0.030487804878048783,0.06097560975609757,0.0,-198.5,135.75,49.875
2021-10-23 16:59:07.10,1021.232666015625,24.02,-2.8237242102117817,-0.8048961700638699,35.0352819644958,0.1423583984375,-0.49765625,10.11103515625,0.06097560975609757,0.0,0.0,-196.375,134.0,48.375
2021-10-23 16:59:07.30,1021.250244140625,24.0,-2.805362166072088,-0.8206420418756918,35.08918249181338,0.15252685546875,-0.49227294921875003,10.122399902343751,0.06097560975609757,0.030487804878048783,0.06097560975609757,-197.375,137.75,49.75
2021-10-23 16:59:07.49,1021.21875,24.0,-2.786384681703442,-0.8271476287251815,35.119045010285355,0.15073242187500002,-0.48688964843750004,10.11761474609375,0.09146341463414635,0.06097560975609757,0.06097560975609757,-195.125,135.875,49.75
2021-10-23 16:59:07.67,1021.217041015625,24.0,-2.7730883183516646,-0.840162093033565,35.2018828909609,0.15252685546875,-0.48988037109375004,10.12479248046875,0.0,0.030487804878048783,0.030487804878048783,-197.375,139.125,45.5
2021-10-23 16:59:07.89,1021.246826171875,23.99,-2.7623124335786833,-0.858444318971033,35.28092961818262,0.15671386718750002,-0.49227294921875003,10.122998046875,0.030487804878048783,0.0,0.0,-195.125,137.625,53.375
2021-10-23 16:59:08.07,1021.189453125,24.0,-2.7469505753936345,-0.8657207464205677,35.4417256639622,0.14893798828125002,-0.49586181640625004,10.12598876953125,0.06097560975609757,0.09146341463414635,0.030487804878048783,-195.25,140.25,49.75
2021-10-23 16:59:08.25,1021.25,23.98,-2.7738663077803656,-0.8494178366232998,35.309940401221134,0.153125,-0.49346923828125006,10.124194335937501,0.030487804878048783,0.06097560975609757,0.030487804878048783,-195.75,134.25,50.75
2021-10-23 16:59:08.46,1021.22900390625,23.99,-2.795483953639584,-0.8482095755279551,35.28450527519997,0.15252685546875,-0.50543212890625,10.109240722656251,0.030487804878048783,0.030487804878048783,0.030487804878048783,-199.0,138.375,51.875
2021-10-23 16:59:08.65,1021.233642578125,23.99,-2.789986650857064,-0.8479026658186319,35.27269951573573,0.15192871093750002,-0.48868408203125,10.1265869140625,0.0,0.030487804878048783,0.0,-196.75,137.125,49.125
2021-10-23 16:59:08.83,1021.25927734375,23.98,-2.790180414519778,-0.8399346604298505,35.18983111746584,0.15372314453125002,-0.48449707031250006,10.13077392578125,0.0,0.09146341463414635,0.0,-196.5,135.125,50.125
2021-10-23 16:59:09.05,1021.22509765625,23.98,-2.8122236216138567,-0.8470389549287475,35.133636257548005,0.15850830078125,-0.5042358398437501,10.10684814453125,0.0,0.0,0.0,-197.25,135.875,49.625
2021-10-23 16:59:09.23,1021.250244140625,23.98,-2.8078200803653823,-0.8487091453748915,35.046741447426136,0.16269531250000002,-0.485693359375,10.130175781250001,0.030487804878048783,0.12195121951219513,0.0,-197.625,135.125,49.125
2021-10-23 16:59:09.41,1021.26171875,23.97,-2.8069008004642364,-0.8460553350282444,35.102736440075034,0.14475097656250002,-0.50184326171875,10.121203613281251,0.0,0.030487804878048783,0.0,-192.625,134.625,49.0
2021-10-23 16:59:09.61,1021.232666015625,23.97,-2.7732307751917764,-0.8528022389689766,35.22209578900549,0.14774169921875002,-0.48270263671875,10.11163330078125,0.06097560975609757,0.030487804878048783,0.06097560975609757,-195.5,138.5,47.125
2021-10-23 16:59:09.80,1021.273193359375,23.97,-2.768032259162321,-0.8500832269163506,35.234386374922586,0.15013427734375,-0.48928222656250003,10.1337646484375,0.030487804878048783,0.06097560975609757,0.0,-197.25,137.625,52.875
2021-10-23 16:59:09.99,1021.2353515625,23.96,-2.7789924395826184,-0.8515620056638703,35.246267214737614,0.15192871093750002,-0.49945068359375006,10.1218017578125,0.0,0.030487804878048783,0.0,-199.125,139.25,46.25
2021-10-23 16:59:10.22,1021.26220703125,23.95,-2.753909301601136,-0.8624249435907791,35.3757633215558,0.15013427734375,-0.48330078125000003,10.08890380859375,0.0,0.030487804878048783,0.0,-196.875,140.5,49.5
2021-10-23 16:59:10.41,1021.25341796875,23.95,-2.7614666142955357,-0.8659282340448676,35.41968442144337,0.153125,-0.49885253906250004,10.11881103515625,0.030487804878048783,0.030487804878048783,0.0,-198.375,140.125,50.125
2021-10-23 16:59:10.59,1021.25439453125,23.95,-2.774508688705429,-0.8501607971153772,35.38781015147192,0.14415283203125,-0.49586181640625004,10.11402587890625,0.030487804878048783,0.030487804878048783,0.06097560975609757,-198.625,138.625,48.875
2021-10-23 16:59:10.78,1021.264404296875,23.95,-2.788355128735595,-0.8218564259982805,35.26671085764001,0.1375732421875,-0.48928222656250003,10.11163330078125,0.030487804878048783,0.030487804878048783,-0.030487804878048783,-196.875,135.125,49.25
2021-10-23 16:59:10.97,1021.2744140625,23.95,-2.778355028986348,-0.824956550374446,35.37640587852217,0.14176025390625002,-0.49885253906250004,10.11881103515625,0.06097560975609757,0.06097560975609757,-0.030487804878048783,-196.125,139.625,48.375
2021-10-23 16:59:11.16,1021.245849609375,23.94,-2.7832658234835845,-0.8281182850720256,35.38963827975433,0.1471435546875,-0.49885253906250004,10.11402587890625,0.06097560975609757,0.0,-0.030487804878048783,-195.25,137.125,50.5
2021-10-23 16:59:11.36,1021.294677734375,23.94,-2.80541578248638,-0.813396108391846,35.271585629854194,0.14534912109375,-0.49825439453125003,10.10804443359375,0.030487804878048783,0.06097560975609757,0.0,-197.25,135.5,47.25
2021-10-23 16:59:11.56,1021.247314453125,23.94,-2.8146446706620027,-0.8002543897702465,35.24544213689215,0.1351806640625,-0.5000488281250001,10.113427734375001,0.0,0.0,0.0,-197.875,137.375,51.5
2021-10-23 16:59:11.74,1021.25537109375,23.94,-2.8375668022688196,-0.7857151098279817,35.15281571357784,0.1375732421875,-0.5072265625000001,10.11881103515625,0.06097560975609757,0.0,0.0,-197.5,135.25,53.375
2021-10-23 16:59:11.92,1021.256103515625,23.94,-2.8463672590885,-0.7787894036059307,35.10879609145524,0.1375732421875,-0.50244140625,10.108642578125,-0.030487804878048783,0.030487804878048783,0.030487804878048783,-199.875,137.875,46.0
2021-10-23 16:59:12.13,1021.26904296875,23.93,-2.832197929736722,-0.7978110010896787,35.25539113257974,0.14415283203125,-0.50782470703125,10.106250000000001,0.030487804878048783,0.06097560975609757,-0.030487804878048783,-197.5,140.625,48.75
2021-10-23 16:59:12.32,1021.2822265625,23.93,-2.8085412931270635,-0.7945053326934911,35.33923392966685,0.131591796875,-0.4916748046875,10.11282958984375,0.030487804878048783,0.0,0.030487804878048783,-196.375,138.875,51.625
2021-10-23 16:59:12.51,1021.277587890625,23.93,-2.8027569513991093,-0.8058473637527769,35.4084115664622,0.14594726562500002,-0.50064697265625,10.11163330078125,0.06097560975609757,0.030487804878048783,0.06097560975609757,-194.0,137.375,47.5
2021-10-23 16:59:12.73,1021.244140625,23.92,-2.7986321721743015,-0.8126886970393864,35.441332456683575,0.14774169921875002,-0.49765625,10.110437011718751,0.06097560975609757,0.06097560975609757,0.030487804878048783,-194.375,137.0,51.875
2021-10-23 16:59:12.91,1021.2666015625,23.92,-2.819402045230104,-0.8020498958426344,35.36556997253099,0.13996582031250002,-0.5012451171875001,10.11163330078125,-0.030487804878048783,-0.030487804878048783,0.030487804878048783,-199.625,138.25,51.0
2021-10-23 16:59:13.09,1021.287841796875,23.92,-2.844636978127657,-0.7834210615499022,35.272070512567126,0.136376953125,-0.50782470703125,10.109240722656251,0.0,0.06097560975609757,0.030487804878048783,-195.0,134.25,49.0
2021-10-23 16:59:13.29,1021.267333984375,23.91,-2.8464792349450536,-0.7689549190568038,35.19613730308545,0.1351806640625,-0.49765625,10.113427734375001,0.06097560975609757,0.06097560975609757,0.0,-197.875,136.125,51.25
2021-10-23 16:59:13.48,1021.251220703125,23.91,-2.8194414500270093,-0.779034299992772,35.314765155535966,0.13817138671875,-0.49466552734375,10.121203613281251,0.0,0.09146341463414635,0.0,-196.25,139.375,51.0
2021-10-23 16:59:13.67,1021.245361328125,23.9,-2.8071507269219778,-0.7959356491561268,35.3524390663999,0.15073242187500002,-0.49466552734375,10.112231445312501,0.06097560975609757,0.06097560975609757,0.0,-198.0,139.25,51.375
2021-10-23 16:59:13.88,1021.239990234375,23.9,-2.8152001512025713,-0.7934569567751123,35.21206911967416,0.15133056640625,-0.485693359375,10.109240722656251,0.0,0.030487804878048783,0.0,-194.625,132.75,51.125
2021-10-23 16:59:14.06,1021.265380859375,23.89,-2.7946527015286255,-0.8163252665290006,35.36423072162191,0.14774169921875002,-0.49945068359375006,10.12000732421875,0.030487804878048783,0.030487804878048783,0.030487804878048783,-195.375,139.625,51.75
2021-10-23 16:59:14.25,1021.2099609375,23.89,-2.8038535309356547,-0.8023589542851386,35.28787451325908,0.13876953125000002,-0.49227294921875003,10.122399902343751,-0.030487804878048783,0.0,0.030487804878048783,-198.75,137.375,47.5
2021-10-23 16:59:14.44,1021.25146484375,23.9,-2.8210390409712915,-0.7749824269934461,35.15162259095887,0.13458251953125,-0.49645996093750006,10.10684814453125,0.06097560975609757,0.12195121951219513,0.0,-197.5,134.625,48.75
2021-10-23 16:59:14.62,1021.2578125,23.89,-2.82501480964524,-0.7795406961553653,35.120141358779385,0.14475097656250002,-0.49945068359375006,10.124194335937501,0.030487804878048783,0.030487804878048783,0.030487804878048783,-197.25,136.125,51.375
2021-10-23 16:59:14.81,1021.26611328125,23.88,-2.799491969666186,-0.8138089310177561,35.22332222202395,0.1591064453125,-0.49107666015625,10.124194335937501,0.030487804878048783,0.030487804878048783,0.0,-198.625,140.375,49.375
2021-10-23 16:59:15.00,1021.25244140625,23.88,-2.816019307420568,-0.8071963922659315,35.140536245585906,0.14594726562500002,-0.49945068359375006,10.12060546875,0.0,0.030487804878048783,0.0,-199.875,137.25,48.75
2021-10-23 16:59:15.21,1021.2705078125,23.88,-2.7943760901204375,-0.8171182094565054,35.189980620133866,0.14654541015625,-0.4880859375,10.115222167968751,0.06097560975609757,0.0,-0.06097560975609757,-196.0,137.375,49.375
2021-10-23 16:59:15.39,1021.234619140625,23.88,-2.7879838078739514,-0.8090310440340256,35.2191968802603,0.136376953125,-0.4940673828125,10.125390625000001,0.030487804878048783,0.030487804878048783,-0.030487804878048783,-197.75,138.125,55.625
2021-10-23 16:59:15.57,1021.25048828125,23.87,-2.8106899868502677,-0.8025123771156539,35.1273469841245,0.14594726562500002,-0.50244140625,10.118212890625001,0.030487804878048783,0.030487804878048783,0.030487804878048783,-198.25,135.875,48.0
2021-10-23 16:59:15.77,1021.24267578125,23.87,-2.799329368072511,-0.8222748292720234,35.224892374890246,0.15073242187500002,-0.5000488281250001,10.11282958984375,0.030487804878048783,0.030487804878048783,-0.06097560975609757,-197.375,139.375,52.0
2021-10-23 16:59:15.96,1021.26220703125,23.87,-2.8054485907643225,-0.810932802862477,35.22217273618156,0.13876953125000002,-0.49945068359375006,10.119409179687501,0.0,0.06097560975609757,0.0,-197.375,137.375,51.375
2021-10-23 16:59:16.15,1021.251708984375,23.88,-2.8033723010140474,-0.8095217402448024,35.303116481553886,0.13697509765625002,-0.5042358398437501,10.1170166015625,0.030487804878048783,0.030487804878048783,-0.030487804878048783,-197.0,139.25,49.5
2021-10-23 16:59:16.36,1021.243896484375,23.86,-2.8076839220720444,-0.811808312755027,35.3535917408526,0.141162109375,-0.50543212890625,10.1158203125,0.030487804878048783,0.0,0.030487804878048783,-198.5,139.875,50.625
2021-10-23 16:59:16.54,1021.25341796875,23.87,-2.824421293647504,-0.7969410878938198,35.26315300814505,0.13936767578125,-0.5000488281250001,10.1146240234375,0.0,0.030487804878048783,0.030487804878048783,-198.625,136.875,47.5
2021-10-23 16:59:16.72,1021.227294921875,23.87,-2.834921826114971,-0.7889839326427163,35.19236414861585,0.13996582031250002,-0.5012451171875001,10.12060546875,0.030487804878048783,0.0,0.030487804878048783,-197.25,135.875,48.25
2021-10-23 16:59:16.92,1021.283447265625,23.86,-2.831703130513683,-0.7876369278030595,35.18159894115515,0.1423583984375,-0.49645996093750006,10.099072265625,0.0,0.09146341463414635,-0.030487804878048783,-198.0,137.5,50.0
2021-10-23 16:59:17.11,1021.278564453125,23.86,-2.8230293205319477,-0.8088465945995981,35.323482993740235,0.14534912109375,-0.5090209960937501,10.11103515625,-0.030487804878048783,0.030487804878048783,0.0,-193.75,138.0,53.375
2021-10-23 16:59:17.30,1021.27197265625,23.85,-2.85457525455918,-0.7837840040182908,35.120115970971604,0.141162109375,-0.5012451171875001,10.106250000000001,0.06097560975609757,0.030487804878048783,0.030487804878048783,-197.25,132.75,53.25
2021-10-23 16:59:17.49,1021.20849609375,23.85,-2.8476595680057386,-0.78438964344952,35.11087100250523,0.13876953125000002,-0.49945068359375006,10.108642578125,0.06097560975609757,-0.030487804878048783,0.06097560975609757,-198.375,137.375,48.0
2021-10-23 16:59:17.69,1021.227294921875,23.84,-2.8290904309272213,-0.776773311539762,35.10626484393666,0.131591796875,-0.48748779296875006,10.115222167968751,0.0,-0.030487804878048783,0.0,-199.375,138.125,50.5
2021-10-23 16:59:17.87,1021.275146484375,23.84,-2.8192760717435426,-0.7718356107567729,35.175603886993194,0.12919921875,-0.49945068359375006,10.116418457031251,0.0,0.030487804878048783,0.030487804878048783,-198.625,139.375,50.5
2021-10-23 16:59:18.07,1021.27783203125,23.83,-2.8308481991670207,-0.7768900878976248,35.12408862427033,0.1423583984375,-0.5012451171875001,10.109240722656251,0.0,-0.06097560975609757,0.06097560975609757,-197.5,136.0,48.75
2021-10-23 16:59:18.26,1021.26953125,23.83,-2.8279652730691596,-0.7705596576095939,35.18292465017983,0.12979736328125002,-0.50543212890625,10.1098388671875,0.030487804878048783,0.06097560975609757,0.030487804878048783,-193.625,135.625,51.25
2021-10-23 16:59:18.45,1021.256103515625,23.83,-2.8239020764554983,-0.7651699688129031,35.178403944281605,0.13218994140625,-0.49705810546875,10.116418457031251,0.030487804878048783,0.0,0.0,-199.25,138.375,51.625
2021-10-23 16:59:18.64,1021.26904296875,23.82,-2.842251659981857,-0.7561607723784314,35.020173364368624,0.13996582031250002,-0.49765625,10.1146240234375,0.030487804878048783,0.0,0.0,-197.125,133.25,48.5
2021-10-23 16:59:18.84,1021.25244140625,23.83,-2.8300282974185955,-0.7696611105952574,35.04904229702115,0.14475097656250002,-0.49526367187500003,10.11163330078125,0.0,0.06097560975609757,0.030487804878048783,-197.25,136.875,52.125
2021-10-23 16:59:19.02,1021.252685546875,23.82,-2.798203322807104,-0.7952984088952427,35.24005017955502,0.13996582031250002,-0.5000488281250001,10.130175781250001,0.030487804878048783,0.0,0.0,-191.875,137.125,54.5
2021-10-23 16:59:19.20,1021.25341796875,23.82,-2.8066435564455348,-0.8018611263591489,35.19984483252431,0.14893798828125002,-0.49885253906250004,10.109240722656251,0.06097560975609757,0.0,-0.030487804878048783,-195.5,135.25,51.0
2021-10-23 16:59:19.41,1021.249267578125,23.82,-2.808907767561365,-0.7943303456423246,35.1440316456348,0.13996582031250002,-0.4916748046875,10.118212890625001,0.0,0.0,0.0,-199.0,137.125,49.875
2021-10-23 16:59:19.59,1021.26123046875,23.82,-2.805365260624302,-0.8114775294741123,35.243094383557406,0.14534912109375,-0.5036376953125,10.12060546875,-0.030487804878048783,-0.030487804878048783,0.030487804878048783,-194.875,137.625,51.125
2021-10-23 16:59:19.78,1021.228759765625,23.82,-2.8263928419680235,-0.802019980847646,35.15404523044562,0.14295654296875002,-0.5030395507812501,10.12359619140625,0.0,0.0,0.0,-197.375,135.375,50.5
2021-10-23 16:59:19.99,1021.227783203125,23.81,-2.8182474719442854,-0.8235348953459641,35.194625401272745,0.15611572265625,-0.5000488281250001,10.1218017578125,0.06097560975609757,0.0,0.0,-198.375,138.75,51.375
2021-10-23 16:59:20.17,1021.267333984375,23.81,-2.8023371426300687,-0.8105127419689326,35.244555160951805,0.13218994140625,-0.49346923828125006,10.122998046875,0.06097560975609757,0.030487804878048783,0.0,-198.625,139.375,51.875
2021-10-23 16:59:20.35,1021.2353515625,23.8,-2.7925911767829854,-0.8202336514908987,35.305919147580205,0.14893798828125002,-0.49645996093750006,10.12000732421875,0.06097560975609757,0.06097560975609757,0.030487804878048783,-197.125,138.875,50.375
2021-10-23 16:59:20.57,1021.234619140625,23.8,-2.8267379052332213,-0.7944281363974969,35.13563342882339,0.13876953125000002,-0.5036376953125,10.1026611328125,0.030487804878048783,0.06097560975609757,-0.030487804878048783,-199.75,135.5,48.5
2021-10-23 16:59:20.76,1021.265869140625,23.79,-2.8203805403460214,-0.7976719792394013,35.093284852618154,0.14774169921875002,-0.48988037109375004,10.125390625000001,0.0,0.030487804878048783,-0.030487804878048783,-196.625,135.375,52.5
2021-10-23 16:59:20.94,1021.2919921875,23.8,-2.7941852639978393,-0.8036721870355841,35.159956920169215,0.1435546875,-0.485693359375,10.125390625000001,0.030487804878048783,0.06097560975609757,0.09146341463414635,-197.5,138.375,51.0
2021-10-23 16:59:21.14,1021.242919921875,23.79,-2.812064279566701,-0.8002041407415512,35.09777018295464,0.14415283203125,-0.50184326171875,10.107446289062501,0.030487804878048783,0.0,0.0,-195.25,134.125,50.5
2021-10-23 16:59:21.33,1021.283447265625,23.79,-2.804365891748134,-0.8097797839260366,35.15134228022288,0.1471435546875,-0.49705810546875,10.11761474609375,0.0,0.06097560975609757,0.0,-196.625,137.5,52.75
2021-10-23 16:59:21.51,1021.252197265625,23.79,-2.816613100569594,-0.80697227678981,35.17218428877986,0.14176025390625002,-0.509619140625,10.1098388671875,0.06097560975609757,0.06097560975609757,0.030487804878048783,-196.125,136.75,48.5
2021-10-23 16:59:21.72,1021.239501953125,23.78,-2.8099296795388544,-0.8117733254171946,35.22043036565978,0.1435546875,-0.49586181640625004,10.100268554687501,-0.030487804878048783,0.030487804878048783,0.0,-195.5,137.0,51.5
2021-10-23 16:59:21.93,1021.27587890625,23.78,-2.8330822910362614,-0.7860309133978631,35.05809368746897,0.1351806640625,-0.49945068359375006,10.106250000000001,0.030487804878048783,0.030487804878048783,0.030487804878048783,-197.875,134.0,45.75
2021-10-23 16:59:22.15,1021.260986328125,23.77,-2.8188541795365833,-0.794861095464736,35.14585315328547,0.13876953125000002,-0.49825439453125003,10.100268554687501,0.0,0.0,-0.030487804878048783,-194.875,137.0,50.0
2021-10-23 16:59:22.35,1021.25927734375,23.77,-2.8027333182273746,-0.827140732411129,35.24909516324861,0.16209716796875,-0.49705810546875,10.104455566406251,0.030487804878048783,0.09146341463414635,0.06097560975609757,-196.0,138.5,51.375
2021-10-23 16:59:22.53,1021.31884765625,23.76,-2.8076596808314793,-0.8051251757167576,35.183670418804624,0.13697509765625002,-0.4916748046875,10.112231445312501,0.0,0.09146341463414635,0.0,-197.0,135.75,50.25
2021-10-23 16:59:22.72,1021.322998046875,23.77,-2.806247029898914,-0.805117416701226,35.26590789747283,0.13817138671875,-0.50543212890625,10.116418457031251,0.030487804878048783,0.06097560975609757,0.030487804878048783,-196.75,138.75,51.625
2021-10-23 16:59:22.93,1021.25732421875,23.76,-2.8245973723133844,-0.7752832699982741,35.140518431525024,0.12919921875,-0.49705810546875,10.10684814453125,0.030487804878048783,0.030487804878048783,0.0,-196.875,134.25,50.75
2021-10-23 16:59:23.12,1021.2822265625,23.75,-2.839524238693112,-0.7768526225723775,35.08042619625593,0.14415283203125,-0.504833984375,10.10206298828125,0.030487804878048783,0.030487804878048783,0.0,-199.0,136.625,51.25
2021-10-23 16:59:23.30,1021.27197265625,23.76,-2.8348013104919496,-0.7789124827627122,35.07014838434876,0.13996582031250002,-0.49885253906250004,10.1146240234375,0.06097560975609757,0.0,0.030487804878048783,-198.25,137.0,50.5
2021-10-23 16:59:23.49,1021.25732421875,23.75,-2.836220806895821,-0.7876783126642827,35.00567710033319,0.15073242187500002,-0.49765625,10.1158203125,0.06097560975609757,0.030487804878048783,0.0,-198.375,135.875,47.5
2021-10-23 16:59:23.68,1021.268798828125,23.75,-2.809033006901696,-0.8078776053033923,35.16655980921707,0.14534912109375,-0.49945068359375006,10.116418457031251,0.06097560975609757,0.06097560975609757,0.06097560975609757,-195.75,139.0,51.25
2021-10-23 16:59:23.87,1021.245849609375,23.75,-2.800576045066104,-0.8108870154229193,35.195536747456245,0.14534912109375,-0.4940673828125,10.11881103515625,0.030487804878048783,0.06097560975609757,0.0,-196.5,137.25,50.625
2021-10-23 16:59:24.05,1021.28955078125,23.75,-2.797854412807422,-0.8276327586851332,35.26577220160321,0.15372314453125002,-0.5042358398437501,10.118212890625001,0.09146341463414635,0.06097560975609757,-0.030487804878048783,-194.75,137.25,49.375
2021-10-23 16:59:24.26,1021.279541015625,23.75,-2.823853835701627,-0.8201516364176968,35.14710065330753,0.14833984375,-0.50064697265625,10.11103515625,-0.030487804878048783,-0.030487804878048783,0.0,-197.125,134.625,50.125
2021-10-23 16:59:24.45,1021.272705078125,23.74,-2.8130834490339307,-0.8197236484432309,35.22594747136076,0.13817138671875,-0.49945068359375006,10.116418457031251,0.0,0.0,0.06097560975609757,-196.625,138.25,54.25
2021-10-23 16:59:24.63,1021.267578125,23.74,-2.8265306902209413,-0.805018194397873,35.100516883611164,0.14415283203125,-0.49645996093750006,10.115222167968751,0.030487804878048783,0.06097560975609757,0.0,-198.5,135.375,46.125
2021-10-23 16:59:24.84,1021.284423828125,23.74,-2.835059060438406,-0.8039003845901675,35.08228258903608,0.14295654296875002,-0.5042358398437501,10.116418457031251,0.0,0.0,0.030487804878048783,-198.25,137.0,48.75
2021-10-23 16:59:25.02,1021.290771484375,23.74,-2.8112729543529684,-0.811422864734735,35.178979411278924,0.141162109375,-0.49287109375000004,10.118212890625001,0.030487804878048783,0.0,0.0,-198.875,140.25,47.875
2021-10-23 16:59:25.20,1021.264404296875,23.73,-2.8194963891877354,-0.8024342709844807,35.09998322946741,0.14176025390625002,-0.49466552734375,10.106250000000001,0.0,0.0,0.0,-201.125,138.0,48.125
2021-10-23 16:59:25.41,1021.295654296875,23.73,-2.8020854534733117,-0.8159158355764722,35.182425743004984,0.14534912109375,-0.49346923828125006,10.122998046875,0.0,-0.030487804878048783,0.06097560975609757,-197.25,138.625,51.75
2021-10-23 16:59:25.59,1021.247314453125,23.73,-2.7678421251942327,-0.8277684813594853,35.46513810253081,0.13577880859375002,-0.49945068359375006,10.125390625000001,0.0,0.12195121951219513,-0.030487804878048783,-193.875,141.75,50.625
2021-10-23 16:59:25.77,1021.252197265625,23.73,-2.7744530453748957,-0.8372253189514726,35.51380865648844,0.15013427734375,-0.5030395507812501,10.127185058593751,0.06097560975609757,0.0,0.0,-196.5,139.25,52.5
2021-10-23 16:59:25.98,1021.245849609375,23.72,-2.782501404050359,-0.8369315091329437,35.556348674158855,0.14415283203125,-0.5012451171875001,10.10804443359375,0.0,0.0,0.0,-196.5,139.375,51.875
2021-10-23 16:59:26.16,1021.265869140625,23.72,-2.7895088551993212,-0.8306229578870251,35.56089293459741,0.1435546875,-0.49705810546875,10.121203613281251,-0.030487804878048783,0.030487804878048783,-0.030487804878048783,-197.5,139.5,49.375
2021-10-23 16:59:26.35,1021.31005859375,23.72,-2.7962130367712787,-0.8174838139399555,35.55854276824848,0.1375732421875,-0.49945068359375006,10.12000732421875,0.030487804878048783,0.030487804878048783,0.0,-195.375,137.75,50.375
2021-10-23 16:59:26.55,1021.282958984375,23.72,-2.8124961357950173,-0.8001691699127506,35.51632946813261,0.13458251953125,-0.5036376953125,10.10684814453125,0.030487804878048783,0.030487804878048783,-0.030487804878048783,-197.375,138.25,49.25
2021-10-23 16:59:26.74,1021.26806640625,23.72,-2.8281170175022514,-0.7931090618926029,35.42832825063751,0.14475097656250002,-0.5030395507812501,10.1218017578125,0.06097560975609757,0.06097560975609757,0.0,-200.75,139.25,48.75
2021-10-23 16:59:26.92,1021.277099609375,23.71,-2.8002866663318864,-0.8030474373814152,35.61312668960381,0.13697509765625002,-0.49945068359375006,10.12598876953125,0.030487804878048783,0.09146341463414635,-0.030487804878048783,-197.375,143.125,51.125
2021-10-23 16:59:27.10,1021.28564453125,23.71,-2.813257128944056,-0.7985675393477514,35.50826743578173,0.1471435546875,-0.49586181640625004,10.119409179687501,0.030487804878048783,0.030487804878048783,-0.06097560975609757,-199.625,138.625,48.875
2021-10-23 16:59:27.30,1021.2353515625,23.71,-2.810027337935135,-0.8020686828748503,35.436352034386125,0.15013427734375,-0.4880859375,10.130175781250001,0.030487804878048783,0.0,0.06097560975609757,-195.75,136.0,49.0
2021-10-23 16:59:27.49,1021.24951171875,23.71,-2.7922504949556752,-0.8003700652677197,35.53510535568274,0.1351806640625,-0.49287109375000004,10.11881103515625,0.0,0.06097560975609757,0.030487804878048783,-198.625,141.875,50.625
2021-10-23 16:59:27.67,1021.268798828125,23.71,-2.7970516943157655,-0.7943524151373628,35.50299585715742,0.14056396484375,-0.49346923828125006,10.1170166015625,0.0,0.030487804878048783,0.030487804878048783,-195.625,137.0,50.75
2021-10-23 16:59:27.89,1021.255126953125,23.71,-2.8104128089439366,-0.7817384400152999,35.39957495467881,0.13936767578125,-0.49466552734375,10.113427734375001,0.030487804878048783,0.030487804878048783,-0.030487804878048783,-197.875,136.75,50.5
2021-10-23 16:59:28.07,1021.232421875,23.71,-2.8122692317190627,-0.78489568290918,35.36898354583501,0.14594726562500002,-0.49586181640625004,10.122998046875,0.030487804878048783,0.06097560975609757,0.030487804878048783,-197.375,137.5,52.125
2021-10-23 16:59:28.25,1021.261474609375,23.7,-2.824585211630309,-0.7672896069494088,35.160254685497875,0.14056396484375,-0.48509521484375,10.1289794921875,-0.030487804878048783,0.030487804878048783,0.0,-198.375,134.0,46.0
2021-10-23 16:59:28.45,1021.253662109375,23.7,-2.8157196699803544,-0.7765027659869177,35.13252876569267,0.14654541015625,-0.48928222656250003,10.107446289062501,0.030487804878048783,0.030487804878048783,0.0,-197.125,136.125,53.375
2021-10-23 16:59:28.64,1021.24755859375,23.71,-2.816989921375843,-0.8117066643850676,35.147185215152895,0.165087890625,-0.50184326171875,10.127783203125,0.030487804878048783,0.0,0.030487804878048783,-200.125,139.125,53.0
2021-10-23 16:59:28.82,1021.2294921875,23.7,-2.8259862055834226,-0.7973211274516393,35.0324697365598,0.13996582031250002,-0.49346923828125006,10.11881103515625,0.0,0.0,0.0,-198.375,135.125,46.375
2021-10-23 16:59:29.03,1021.256103515625,23.69,-2.7907082996332977,-0.8280618417373522,35.201227094948074,0.15192871093750002,-0.49107666015625,10.11103515625,0.030487804878048783,0.0,-0.030487804878048783,-196.875,140.25,51.75
2021-10-23 16:59:29.21,1021.240478515625,23.7,-2.7956612860457355,-0.8326983770089101,35.21086641328023,0.1495361328125,-0.49885253906250004,10.128381347656251,0.0,0.0,0.0,-197.0,137.25,52.625
2021-10-23 16:59:29.39,1021.26611328125,23.69,-2.816801755655159,-0.8185043094956865,35.04391749953686,0.14893798828125002,-0.49526367187500003,10.12060546875,0.030487804878048783,0.030487804878048783,0.0,-200.125,135.375,47.25
2021-10-23 16:59:29.60,1021.253173828125,23.69,-2.8046774682105373,-0.8267804731947396,35.09969458372678,0.1495361328125,-0.49645996093750006,10.09967041015625,0.09146341463414635,0.06097560975609757,0.06097560975609757,-198.5,138.625,50.375
2021-10-23 16:59:29.79,1021.238037109375,23.69,-2.7918684110530316,-0.8411322284169812,35.08400921034006,0.1591064453125,-0.48509521484375,10.12479248046875,0.030487804878048783,0.0,0.0,-196.75,136.125,47.5
2021-10-23 16:59:29.97,1021.21826171875,23.69,-2.7895410709460093,-0.850731809875612,35.17931350625032,0.15192871093750002,-0.50064697265625,10.12479248046875,-0.030487804878048783,0.06097560975609757,0.0,-196.75,138.75,48.0
2021-10-23 16:59:30.15,1021.23291015625,23.69,-2.787606507114797,-0.8529244382593811,35.21349963119206,0.1495361328125,-0.49705810546875,10.1289794921875,0.030487804878048783,0.0,-0.030487804878048783,-196.25,137.375,49.5
2021-10-23 16:59:30.35,1021.242431640625,23.69,-2.801265437068167,-0.830512822917318,35.12895509233,0.13996582031250002,-0.49645996093750006,10.122998046875,0.030487804878048783,0.030487804878048783,0.030487804878048783,-198.625,136.375,46.375
2021-10-23 16:59:30.54,1021.244384765625,23.68,-2.7884262601242242,-0.8416006229456221,35.19842516562162,0.15491943359375002,-0.49287109375000004,10.12000732421875,0.0,0.12195121951219513,0.030487804878048783,-195.875,137.5,53.125
2021-10-23 16:59:30.72,1021.264892578125,23.69,-2.809762560447336,-0.8379540886199611,35.07718936218627,0.155517578125,-0.50064697265625,10.1218017578125,0.06097560975609757,0.030487804878048783,0.0,-200.875,137.0,46.125
2021-10-23 16:59:30.91,1021.246337890625,23.68,-2.8007981911556055,-0.8155309338624175,35.04159866033319,0.13398437500000002,-0.48629150390625003,10.118212890625001,0.030487804878048783,0.030487804878048783,0.0,-199.5,137.25,52.5
2021-10-23 16:59:31.09,1021.25537109375,23.66,-2.833198449548164,-0.7795291121001391,34.834588225641035,0.13398437500000002,-0.49885253906250004,10.119409179687501,0.0,0.09146341463414635,0.0,-200.375,133.625,48.75
2021-10-23 16:59:31.28,1021.22265625,23.68,-2.8117278028459722,-0.8062302083077658,34.988112988743424,0.15192871093750002,-0.5012451171875001,10.122399902343751,0.0,0.12195121951219513,0.06097560975609757,-197.5,139.125,52.875
2021-10-23 16:59:31.49,1021.284912109375,23.66,-2.797131246513282,-0.8046713573102892,35.077436263183834,0.1351806640625,-0.49586181640625004,10.10804443359375,0.030487804878048783,0.030487804878048783,0.0,-197.5,138.5,51.0
2021-10-23 16:59:31.67,1021.262939453125,23.66,-2.7859778476856634,-0.8074509844138316,35.21995043447127,0.1351806640625,-0.5036376953125,10.11761474609375,0.09146341463414635,0.030487804878048783,0.0,-198.875,141.375,48.25
2021-10-23 16:59:31.86,1021.247802734375,23.66,-2.8025084864553143,-0.812479570970052,35.17188675666299,0.15192871093750002,-0.50184326171875,10.122998046875,0.030487804878048783,0.030487804878048783,0.0,-195.875,135.25,49.75
2021-10-23 16:59:32.07,1021.245849609375,23.66,-2.792149946809803,-0.8056537582938657,35.27579029256596,0.1303955078125,-0.49705810546875,10.10086669921875,-0.030487804878048783,0.030487804878048783,0.030487804878048783,-195.625,138.375,53.125
2021-10-23 16:59:32.25,1021.233642578125,23.66,-2.800247473696484,-0.7868072543697832,35.21757881843289,0.13398437500000002,-0.49466552734375,10.1158203125,0.030487804878048783,0.06097560975609757,0.0,-196.875,136.0,49.5
2021-10-23 16:59:32.44,1021.229248046875,23.66,-2.8261056070359585,-0.7711863717667637,35.12658844158669,0.13398437500000002,-0.5060302734375001,10.113427734375001,0.030487804878048783,0.0,0.030487804878048783,-198.5,135.875,51.875
2021-10-23 16:59:32.65,1021.219970703125,23.65,-2.8279504770336645,-0.7761841314996851,35.13725730508072,0.14056396484375,-0.50244140625,10.10086669921875,0.030487804878048783,0.030487804878048783,0.0,-197.375,137.25,48.75
2021-10-23 16:59:32.83,1021.2490234375,23.66,-2.826627907333912,-0.7722770302160843,35.14357089228593,0.13577880859375002,-0.50064697265625,10.116418457031251,0.030487804878048783,0.06097560975609757,-0.030487804878048783,-195.875,136.25,47.0
2021-10-23 16:59:33.01,1021.267578125,23.66,-2.839750166576484,-0.7768138290421098,35.064950278192725,0.14893798828125002,-0.5030395507812501,10.127185058593751,0.030487804878048783,0.06097560975609757,0.0,-198.125,135.625,50.125
2021-10-23 16:59:33.20,1021.25537109375,23.66,-2.853358811713217,-0.7746087533367789,35.027690367889534,0.141162109375,-0.5084228515625,10.118212890625001,0.0,0.06097560975609757,0.030487804878048783,-198.5,136.375,51.875
2021-10-23 16:59:33.38,1021.260009765625,23.65,-2.8365760235897497,-0.7989337180186417,35.1743188537809,0.14893798828125002,-0.50662841796875,10.11761474609375,0.0,0.09146341463414635,0.0,-196.625,139.5,49.625
2021-10-23 16:59:33.57,1021.240966796875,23.65,-2.8402714601999555,-0.8167246327609858,35.17823802344922,0.15671386718750002,-0.5042358398437501,10.11163330078125,0.0,0.030487804878048783,0.030487804878048783,-197.125,137.125,48.75
2021-10-23 16:59:33.76,1021.267333984375,23.65,-2.8292998610780558,-0.8041718715905188,35.185945172910735,0.13577880859375002,-0.49645996093750006,10.118212890625001,0.06097560975609757,0.06097560975609757,-0.030487804878048783,-197.25,137.375,49.625
2021-10-23 16:59:33.96,1021.26611328125,23.64,-2.7929887554221318,-0.8279590747059259,35.37820054439551,0.1471435546875,-0.49287109375000004,10.127185058593751,0.0,0.030487804878048783,0.030487804878048783,-196.625,141.375,52.25
2021-10-23 16:59:34.14,1021.23681640625,23.64,-2.8093314818601365,-0.7993744896432604,35.33850630907633,0.12860107421875,-0.5060302734375001,10.1170166015625,0.09146341463414635,0.06097560975609757,0.0,-197.625,137.5,49.875
2021-10-23 16:59:34.32,1021.268310546875,23.64,-2.8302353478385727,-0.788186982400951,35.207081713091824,0.1423583984375,-0.49885253906250004,10.116418457031251,0.0,0.0,-0.030487804878048783,-199.0,136.0,50.25
2021-10-23 16:59:34.52,1021.2578125,23.64,-2.817792299444907,-0.8002915715843084,35.267006946779105,0.14534912109375,-0.49765625,10.124194335937501,0.0,0.030487804878048783,0.030487804878048783,-196.875,138.25,55.25
2021-10-23 16:59:34.71,1021.28857421875,23.64,-2.8118280875725716,-0.7970903889573744,35.23700209885507,0.1423583984375,-0.49107666015625,10.118212890625001,0.030487804878048783,0.030487804878048783,0.0,-197.375,137.0,48.875
2021-10-23 16:59:34.90,1021.242919921875,23.64,-2.8550165029423296,-0.7874789080491332,35.18809439597581,0.136376953125,-0.52576904296875,10.11163330078125,-0.030487804878048783,0.0,-0.030487804878048783,-199.875,138.25,46.625
2021-10-23 16:59:35.10,1021.26953125,23.64,-2.851899543545596,-0.7893148710872078,35.22519965754165,0.14056396484375,-0.5060302734375001,10.1218017578125,0.0,0.06097560975609757,0.06097560975609757,-198.0,138.5,50.75
2021-10-23 16:59:35.28,1021.26806640625,23.64,-2.8327354461547367,-0.7992211083843088,35.32742392476607,0.13996582031250002,-0.5012451171875001,10.11282958984375,0.06097560975609757,0.0,0.030487804878048783,-195.125,138.375,48.25
2021-10-23 16:59:35.46,1021.232421875,23.64,-2.839046404702037,-0.7924924019124059,35.18543240903712,0.1495361328125,-0.48988037109375004,10.1218017578125,0.0,0.06097560975609757,0.030487804878048783,-197.375,134.5,49.75
2021-10-23 16:59:35.67,1021.268798828125,23.63,-2.836961684019444,-0.8055630833963483,35.24182594611403,0.14594726562500002,-0.5072265625000001,10.10565185546875,0.030487804878048783,0.0,0.030487804878048783,-198.875,139.5,54.25
2021-10-23 16:59:35.85,1021.291259765625,23.64,-2.838558608629188,-0.7984304715330148,35.26651625733458,0.136376953125,-0.5060302734375001,10.1170166015625,0.030487804878048783,0.030487804878048783,0.09146341463414635,-199.125,139.25,50.875
2021-10-23 16:59:36.04,1021.272216796875,23.64,-2.848141800600252,-0.7852502238474296,35.14726797102585,0.14295654296875002,-0.49645996093750006,10.115222167968751,0.0,0.09146341463414635,0.0,-200.0,136.625,49.0
2021-10-23 16:59:36.26,1021.259033203125,23.63,-2.860449765542062,-0.7828756132391547,35.07237425794546,0.14415283203125,-0.504833984375,10.10086669921875,0.030487804878048783,0.030487804878048783,0.06097560975609757,-200.125,137.0,51.125
2021-10-23 16:59:36.44,1021.24853515625,23.64,-2.8544242272157847,-0.7756331630692261,34.992823227186456,0.13936767578125,-0.49346923828125006,10.139147949218751,0.030487804878048783,0.0,0.030487804878048783,-197.375,134.625,51.0
2021-10-23 16:59:36.63,1021.235107421875,23.63,-2.8669229156980465,-0.7616175877369228,34.77828799288485,0.14415283203125,-0.49466552734375,10.11761474609375,0.09146341463414635,0.06097560975609757,-0.06097560975609757,-202.75,134.75,50.125
2021-10-23 16:59:36.82,1021.23779296875,23.63,-2.86255444389925,-0.7602750292855235,34.76843655172925,0.13697509765625002,-0.50244140625,10.110437011718751,0.030487804878048783,0.06097560975609757,0.06097560975609757,-198.625,135.625,51.125
2021-10-23 16:59:37.01,1021.25146484375,23.63,-2.829894094248981,-0.7815407225645534,34.95320938969109,0.1375732421875,-0.50184326171875,10.12957763671875,0.0,0.030487804878048783,0.0,-196.5,138.875,52.875
2021-10-23 16:59:37.20,1021.27099609375,23.63,-2.826346404692156,-0.7774951235312128,34.95692296104628,0.13817138671875,-0.5000488281250001,10.118212890625001,0.06097560975609757,0.09146341463414635,0.0,-198.0,136.625,48.875
2021-10-23 16:59:37.41,1021.240478515625,23.63,-2.8148559570812455,-0.8053947552501253,35.11664018221228,0.1471435546875,-0.5072265625000001,10.0978759765625,0.0,0.0,0.06097560975609757,-196.0,138.875,51.75
2021-10-23 16:59:37.60,1021.259521484375,23.62,-2.831825483591008,-0.7917808695429056,35.089349324732424,0.13458251953125,-0.5090209960937501,10.1098388671875,0.030487804878048783,0.030487804878048783,0.030487804878048783,-200.0,138.125,48.0
2021-10-23 16:59:37.78,1021.25634765625,23.62,-2.8284781223157927,-0.8073200754229702,35.13728905307317,0.14893798828125002,-0.5042358398437501,10.11881103515625,0.030487804878048783,0.0,0.0,-198.0,138.375,49.875
2021-10-23 16:59:37.97,1021.262451171875,23.61,-2.826518554714897,-0.8118158149695582,35.145536982200404,0.14833984375,-0.49885253906250004,10.116418457031251,0.0,0.06097560975609757,0.030487804878048783,-196.5,136.75,45.25
2021-10-23 16:59:38.16,1021.264404296875,23.61,-2.8103661773161663,-0.8173934928092239,35.24030614275214,0.14176025390625002,-0.49825439453125003,10.11881103515625,0.030487804878048783,0.030487804878048783,0.030487804878048783,-197.125,139.125,51.5
2021-10-23 16:59:38.35,1021.268798828125,23.62,-2.8212302821661788,-0.8032075198097302,35.25747507042296,0.13398437500000002,-0.509619140625,10.1146240234375,0.06097560975609757,0.06097560975609757,0.0,-199.0,139.125,50.25
2021-10-23 16:59:38.54,1021.27685546875,23.61,-2.839964266480504,-0.792762124366891,35.14160840759572,0.1435546875,-0.50184326171875,10.110437011718751,0.030487804878048783,0.030487804878048783,0.0,-197.25,134.75,49.25
2021-10-23 16:59:38.73,1021.250732421875,23.61,-2.8331717826116307,-0.8010668825909933,35.20431790589861,0.14176025390625002,-0.5030395507812501,10.10804443359375,0.0,0.0,0.030487804878048783,-195.875,137.375,52.125
2021-10-23 16:59:38.91,1021.22216796875,23.61,-2.8465391579820123,-0.7784181577550802,35.07052970637526,0.1351806640625,-0.49466552734375,10.1170166015625,-0.030487804878048783,0.030487804878048783,-0.06097560975609757,-196.75,133.625,52.375
2021-10-23 16:59:39.10,1021.26953125,23.61,-2.8615812533457423,-0.7772372978802092,35.008337468558366,0.1423583984375,-0.5102172851562501,10.12000732421875,0.030487804878048783,0.030487804878048783,0.0,-198.625,136.125,46.75
2021-10-23 16:59:39.29,1021.23779296875,23.6,-2.8520587340649466,-0.7640180737345696,35.034155901604784,0.12680664062500002,-0.50244140625,10.119409179687501,0.030487804878048783,0.06097560975609757,0.0,-196.625,136.25,54.125
2021-10-23 16:59:39.48,1021.2421875,23.61,-2.816654712492821,-0.7778327234188005,35.14315071709067,0.13876953125000002,-0.48928222656250003,10.12598876953125,0.030487804878048783,0.030487804878048783,0.0,-197.625,139.25,51.5
2021-10-23 16:59:39.67,1021.212158203125,23.6,-2.837092419803004,-0.7528152188723491,35.050703266811105,0.1256103515625,-0.504833984375,10.11163330078125,0.030487804878048783,0.030487804878048783,0.030487804878048783,-198.625,135.625,49.625
2021-10-23 16:59:39.86,1021.2353515625,23.61,-2.8082322770093158,-0.7783860867762881,35.18388807768729,0.14415283203125,-0.49346923828125006,10.119409179687501,0.0,0.030487804878048783,0.030487804878048783,-195.0,138.0,52.125
2021-10-23 16:59:40.05,1021.24462890625,23.6,-2.8126810323888565,-0.7926680799035782,35.14959492461085,0.15192871093750002,-0.49765625,10.124194335937501,0.030487804878048783,0.0,-0.030487804878048783,-195.875,135.375,50.5
2021-10-23 16:59:40.23,1021.187744140625,23.59,-2.837737184861462,-0.784811325355058,35.060554551898385,0.141162109375,-0.5060302734375001,10.121203613281251,-0.030487804878048783,0.0,0.06097560975609757,-200.0,136.625,50.625
2021-10-23 16:59:40.44,1021.22119140625,23.6,-2.8429127696602476,-0.7933772874456795,34.97539297967316,0.15252685546875,-0.49645996093750006,10.124194335937501,0.0,0.0,0.030487804878048783,-198.25,135.125,49.25
2021-10-23 16:59:40.62,1021.227294921875,23.6,-2.8131577213228196,-0.8177488216688521,35.15910357456674,0.14774169921875002,-0.49945068359375006,10.125390625000001,0.0,0.06097560975609757,0.0,-195.25,139.125,51.0
2021-10-23 16:59:40.81,1021.232666015625,23.6,-2.837980279151114,-0.7852550042073259,34.978979844730034,0.13398437500000002,-0.50184326171875,10.124194335937501,0.09146341463414635,0.06097560975609757,-0.030487804878048783,-203.125,136.75,49.625
2021-10-23 16:59:41.00,1021.211181640625,23.6,-2.839452174089644,-0.7954818824146295,34.94328068390995,0.15252685546875,-0.49885253906250004,10.122399902343751,0.0,0.06097560975609757,0.030487804878048783,-196.75,134.875,49.125
2021-10-23 16:59:41.19,1021.2138671875,23.6,-2.84264121057833,-0.8113942779654815,34.86971348336581,0.16090087890625002,-0.49645996093750006,10.1289794921875,0.0,0.030487804878048783,0.030487804878048783,-199.875,135.875,50.625
2021-10-23 16:59:41.37,1021.279052734375,23.59,-2.8171477545719306,-0.8188254900076845,34.93074001028506,0.14594726562500002,-0.49047851562500006,10.130175781250001,0.030487804878048783,0.030487804878048783,0.030487804878048783,-196.5,136.375,52.5
2021-10-23 16:59:41.57,1021.25146484375,23.59,-2.8150316263687776,-0.8091089481346166,34.90572827734795,0.141162109375,-0.49466552734375,10.119409179687501,0.030487804878048783,0.06097560975609757,0.0,-198.625,136.25,49.375
2021-10-23 16:59:41.76,1021.25390625,23.59,-2.7865131872746867,-0.8178520583015024,35.06940866156538,0.13996582031250002,-0.49705810546875,10.132568359375,0.06097560975609757,0.09146341463414635,-0.030487804878048783,-194.5,137.75,52.5
2021-10-23 16:59:41.94,1021.274169921875,23.59,-2.8002997160223932,-0.8207041879353381,35.009372202613804,0.153125,-0.49705810546875,10.124194335937501,0.0,0.030487804878048783,0.06097560975609757,-197.25,135.125,48.75
2021-10-23 16:59:42.13,1021.25341796875,23.58,-2.794258444656295,-0.8382009131771676,35.05562218432006,0.15731201171875,-0.49825439453125003,10.13555908203125,0.06097560975609757,0.030487804878048783,0.030487804878048783,-197.625,137.625,50.75
2021-10-23 16:59:42.32,1021.2412109375,23.58,-2.780416385624304,-0.8456660232297533,35.17430770739032,0.14534912109375,-0.49945068359375006,10.12060546875,0.06097560975609757,0.030487804878048783,0.030487804878048783,-196.875,139.0,54.625
2021-10-23 16:59:42.50,1021.241943359375,23.58,-2.7890824091711925,-0.8389162829323977,35.14049583366697,0.14833984375,-0.49586181640625004,10.127185058593751,0.030487804878048783,0.030487804878048783,0.030487804878048783,-197.125,136.125,52.375
2021-10-23 16:59:42.69,1021.231689453125,23.58,-2.7940328844795785,-0.8325317347034951,35.12710841332961,0.14415283203125,-0.49885253906250004,10.115222167968751,0.09146341463414635,0.0,0.0,-198.125,137.25,50.5
2021-10-23 16:59:42.88,1021.27734375,23.58,-2.7955686884318767,-0.8257635993622272,35.10640977013844,0.14594726562500002,-0.4940673828125,10.12479248046875,0.030487804878048783,0.06097560975609757,0.030487804878048783,-197.25,136.375,49.875
2021-10-23 16:59:43.06,1021.243408203125,23.58,-2.8111453703104754,-0.810262052454734,35.052093494458816,0.13936767578125,-0.50184326171875,10.128381347656251,0.030487804878048783,0.030487804878048783,0.030487804878048783,-200.375,137.5,52.75
2021-10-23 16:59:43.27,1021.28515625,23.57,-2.8073240069782472,-0.8385776532432107,35.06831584149255,0.16389160156250002,-0.49586181640625004,10.10565185546875,0.030487804878048783,-0.030487804878048783,0.06097560975609757,-196.125,135.875,54.0
2021-10-23 16:59:43.46,1021.260986328125,23.58,-2.8013016209951083,-0.8382413097122696,35.10436888288952,0.14774169921875002,-0.49705810546875,10.13197021484375,0.030487804878048783,0.06097560975609757,-0.030487804878048783,-199.25,139.0,48.25
2021-10-23 16:59:43.65,1021.290283203125,23.57,-2.782297961538205,-0.8433140033538298,35.16896146035585,0.1495361328125,-0.48748779296875006,10.1265869140625,0.0,0.06097560975609757,0.0,-195.375,137.0,51.375
2021-10-23 16:59:43.83,1021.2431640625,23.57,-2.80002935055931,-0.8320388846505782,35.09470983989221,0.1471435546875,-0.49885253906250004,10.118212890625001,0.030487804878048783,0.030487804878048783,0.06097560975609757,-197.0,135.125,48.875
2021-10-23 16:59:44.04,1021.26708984375,23.57,-2.806054313492545,-0.8313434020347583,35.03045040038363,0.1543212890625,-0.49346923828125006,10.1218017578125,0.030487804878048783,0.06097560975609757,0.0,-197.875,135.5,52.625
2021-10-23 16:59:44.23,1021.28662109375,23.57,-2.796083507357773,-0.812717344882527,35.07158476781252,0.13218994140625,-0.4940673828125,10.12598876953125,0.030487804878048783,0.09146341463414635,0.0,-198.5,138.25,51.25
2021-10-23 16:59:44.41,1021.280517578125,23.57,-2.803556307734584,-0.8063794155131857,35.046606581728405,0.14056396484375,-0.5000488281250001,10.122998046875,0.06097560975609757,0.0,0.0,-198.875,137.125,50.25
2021-10-23 16:59:44.60,1021.275146484375,23.57,-2.8036487416954463,-0.7922064353140538,34.982785146986394,0.13876953125000002,-0.49047851562500006,10.1218017578125,0.06097560975609757,0.06097560975609757,0.0,-195.5,133.625,52.0
2021-10-23 16:59:44.78,1021.279541015625,23.57,-2.8038210726816652,-0.7936569982716155,35.03288307447278,0.13996582031250002,-0.5012451171875001,10.122998046875,0.0,0.06097560975609757,0.030487804878048783,-197.125,137.25,49.75
2021-10-23 16:59:44.97,1021.281005859375,23.56,-2.8046588601431055,-0.7838032420776115,35.01528100045069,0.1351806640625,-0.49526367187500003,10.12060546875,0.030487804878048783,0.030487804878048783,0.06097560975609757,-198.75,137.0,48.625
2021-10-23 16:59:45.17,1021.253662109375,23.56,-2.8156916851194693,-0.8019313814932754,34.996418654270975,0.15611572265625,-0.504833984375,10.11881103515625,0.06097560975609757,0.030487804878048783,0.0,-196.875,135.5,51.875
2021-10-23 16:59:45.35,1021.272705078125,23.56,-2.8192000260024987,-0.8015680757199621,34.930153435548206,0.14774169921875002,-0.49526367187500003,10.13077392578125,0.030487804878048783,0.030487804878048783,0.0,-197.875,135.125,47.625
2021-10-23 16:59:45.53,1021.2431640625,23.56,-2.813275551633636,-0.803895933058939,34.97047115082577,0.14295654296875002,-0.49945068359375006,10.125390625000001,0.030487804878048783,0.06097560975609757,0.0,-198.0,137.375,50.0
2021-10-23 16:59:45.72,1021.245361328125,23.56,-2.807575979892459,-0.8131924322312993,35.0428420120133,0.14415283203125,-0.50064697265625,10.119409179687501,0.0,0.0,0.06097560975609757,-197.5,137.875,52.0
2021-10-23 16:59:45.91,1021.304443359375,23.56,-2.7983676900244023,-0.806744391243094,34.99367987976386,0.14415283203125,-0.485693359375,10.13197021484375,0.06097560975609757,0.030487804878048783,0.030487804878048783,-199.25,136.5,52.875
2021-10-23 16:59:46.09,1021.272705078125,23.56,-2.7835190171222677,-0.8208018278429595,35.09623009843488,0.14893798828125002,-0.49705810546875,10.122399902343751,0.09146341463414635,0.06097560975609757,0.030487804878048783,-197.625,139.0,48.75
2021-10-23 16:59:46.30,1021.2734375,23.55,-2.789529108084841,-0.810817067162366,35.16210055631564,0.131591796875,-0.5060302734375001,10.1050537109375,0.06097560975609757,0.0,0.030487804878048783,-198.5,139.125,52.5
2021-10-23 16:59:46.49,1021.222412109375,23.55,-2.797691247771516,-0.8275524079201005,35.146687599603844,0.15850830078125,-0.49705810546875,10.128381347656251,-0.030487804878048783,0.0,0.030487804878048783,-199.125,138.0,49.625
2021-10-23 16:59:46.67,1021.24267578125,23.56,-2.7680037614920514,-0.8262412319101194,35.27799852179304,0.13577880859375002,-0.485693359375,10.125390625000001,0.0,0.030487804878048783,0.0,-199.625,141.875,52.5
2021-10-23 16:59:46.86,1021.27392578125,23.56,-2.772136781110793,-0.8136619498904812,35.31405755699008,0.13577880859375002,-0.49705810546875,10.13197021484375,0.0,0.06097560975609757,0.06097560975609757,-196.625,138.0,52.125
