Date-Time,Pressure (hPa),Temperature (°C),Roll,Pitch,Yaw ,X Acc (g),Y Acc (g),Z Acc (g),Gyro X (°/s),Gyro Y (°/s),Gyro Z (°/s),Mag X (µT),Mag Y (µT),Mag Z (µT)
2021-10-23 16:23:54.17,0.0,0.0,0.3987886091878166,4.0831568857812695,173.95184867378183,0.1902099609375,-0.440234375,9.98243408203125,0.030487804878048783,-0.030487804878048783,0.030487804878048783,-219.5,129.0,48.625
2021-10-23 16:23:54.35,1015.912841796875,22.85,0.7590674181154089,8.839560478233134,167.03531336195613,0.17705078125,-0.44083251953125,10.074548339843751,-0.030487804878048783,0.0,0.030487804878048783,-218.875,129.625,51.25
2021-10-23 16:23:54.53,1020.536376953125,22.85,0.8040297312254409,13.58772522432542,159.32364725960295,0.172265625,-0.44860839843750006,10.0966796875,0.030487804878048783,0.030487804878048783,0.0,-220.0,128.0,46.75
2021-10-23 16:23:54.74,1020.510498046875,22.86,0.5330936408838689,18.445797295890603,150.92732636244793,0.17585449218750002,-0.45159912109375006,10.0906982421875,0.0,0.0,0.0,-214.375,128.125,49.0
2021-10-23 16:23:54.92,1020.491943359375,22.86,-0.17458398610968695,22.96872912223205,142.14317106709035,0.155517578125,-0.4462158203125,10.12060546875,0.030487804878048783,-0.030487804878048783,0.030487804878048783,-218.0,129.625,51.75
2021-10-23 16:23:55.10,1020.48974609375,22.87,-1.3612451133159436,26.539054193247765,133.01405207665184,0.1854248046875,-0.44920654296875,10.0966796875,0.0,0.0,0.0,-218.75,127.0,47.75
2021-10-23 16:23:55.31,1020.495361328125,22.87,-2.843106516004612,29.135038504374748,123.85669868889339,0.17047119140625,-0.44741210937500003,10.106250000000001,-0.030487804878048783,0.030487804878048783,0.030487804878048783,-219.625,127.375,49.5
2021-10-23 16:23:55.52,1020.51513671875,22.87,-4.511139192349021,30.566218243089214,114.64281276988976,0.17585449218750002,-0.440234375,10.11282958984375,-0.030487804878048783,0.0,-0.030487804878048783,-220.125,125.75,45.5
2021-10-23 16:23:55.73,1020.50830078125,22.87,-6.143792202983609,30.950633129777703,105.71544571077365,0.1830322265625,-0.43365478515625006,10.109240722656251,0.12195121951219513,0.0,0.030487804878048783,-218.625,124.625,46.25
2021-10-23 16:23:55.93,1020.451416015625,22.87,-7.537422140557927,30.36313225266375,97.29758277768262,0.17705078125,-0.437841796875,10.118212890625001,0.06097560975609757,-0.06097560975609757,0.0,-217.375,127.375,49.0
2021-10-23 16:23:56.11,1020.53955078125,22.87,-8.597633040760153,28.94834614258833,89.4971904875347,0.1854248046875,-0.44561767578125006,10.12000732421875,0.030487804878048783,0.0,0.0,-213.875,129.625,51.0
2021-10-23 16:23:56.29,1020.506591796875,22.88,-9.42610393567772,26.967143082050903,82.07308025027902,0.17525634765625,-0.46116943359375,10.128381347656251,-0.06097560975609757,0.06097560975609757,0.06097560975609757,-214.75,128.875,47.875
2021-10-23 16:23:56.50,1020.49609375,22.88,-9.97138142186445,24.643558502338063,75.17740940960395,0.16688232421875002,-0.44083251953125,10.118212890625001,0.06097560975609757,0.0,0.030487804878048783,-218.5,127.375,48.375
2021-10-23 16:23:56.69,1020.5263671875,22.88,-10.196007801228342,22.065676108793664,68.99987728617828,0.172265625,-0.45279541015625,10.127783203125,0.06097560975609757,-0.030487804878048783,0.0,-219.125,128.375,51.0
2021-10-23 16:23:56.87,1020.513671875,22.88,-10.09967128717243,19.354660998606125,63.37890387127136,0.16448974609375,-0.45638427734375003,10.116418457031251,0.06097560975609757,0.030487804878048783,0.030487804878048783,-217.25,128.375,47.125
2021-10-23 16:23:57.08,1020.52197265625,22.88,-9.820094746343718,16.720383917881307,58.42510835249136,0.17047119140625,-0.45339355468750003,10.1170166015625,-0.030487804878048783,0.06097560975609757,0.0,-218.0,127.375,50.125
2021-10-23 16:23:57.27,1020.44091796875,22.88,-9.307774259979883,14.178568328525897,54.05777498919875,0.172265625,-0.43664550781250006,10.12957763671875,0.030487804878048783,-0.030487804878048783,0.0,-221.125,130.375,48.0
2021-10-23 16:23:57.45,1020.524169921875,22.88,-8.804072554017367,11.89998241629306,50.004482342347515,0.17705078125,-0.45040283203125003,10.119409179687501,-0.06097560975609757,0.030487804878048783,0.06097560975609757,-221.125,123.375,46.5
2021-10-23 16:23:57.67,1020.510986328125,22.88,-8.180372714987886,9.82685571747297,46.67422497112232,0.18482666015625002,-0.43724365234375,10.109240722656251,0.030487804878048783,-0.030487804878048783,0.030487804878048783,-219.0,124.75,48.75
2021-10-23 16:23:57.85,1020.525390625,22.88,-7.48361686441202,7.967145298164639,44.08491894977958,0.18363037109375002,-0.44501953125000004,10.1349609375,-0.06097560975609757,0.0,0.030487804878048783,-214.5,128.625,48.375
2021-10-23 16:23:58.03,1020.526611328125,22.88,-6.880345978429906,6.419951572978282,41.734482891796816,0.18243408203125,-0.4462158203125,10.10804443359375,0.0,0.030487804878048783,0.06097560975609757,-218.375,126.375,50.75
2021-10-23 16:23:58.22,1020.47265625,22.88,-6.292908191240389,5.1061626320770435,39.86984594229786,0.16748046875,-0.44860839843750006,10.11881103515625,-0.06097560975609757,-0.030487804878048783,0.0,-219.75,130.0,51.625
2021-10-23 16:23:58.41,1020.490234375,22.88,-5.773050279585376,4.014910169979939,38.2103811319816,0.17166748046875002,-0.44741210937500003,10.1265869140625,0.0,0.0,0.06097560975609757,-217.875,126.5,50.375
2021-10-23 16:23:58.60,1020.4912109375,22.89,-5.285292527771423,3.0923247696530103,36.90213892978272,0.165087890625,-0.45638427734375003,10.113427734375001,-0.030487804878048783,0.030487804878048783,-0.030487804878048783,-217.125,128.75,46.125
2021-10-23 16:23:58.79,1020.49462890625,22.89,-4.865733471268582,2.3441657693085434,35.7732976868078,0.16209716796875,-0.45458984375000006,10.11163330078125,0.06097560975609757,0.0,0.09146341463414635,-217.25,127.375,46.75
2021-10-23 16:23:58.99,1020.535888671875,22.89,-4.500279986281158,1.7358957168176121,34.84727135205303,0.15491943359375002,-0.45638427734375003,10.115222167968751,0.0,0.030487804878048783,0.030487804878048783,-218.5,128.5,45.125
2021-10-23 16:23:59.17,1020.44384765625,22.89,-4.150724699837503,1.2105570737524751,34.28555672647134,0.16927490234375,-0.44322509765625,10.127783203125,0.030487804878048783,0.030487804878048783,0.0,-216.75,131.75,50.0
2021-10-23 16:23:59.35,1020.487548828125,22.89,-3.9000471320517778,0.7918783235825159,33.65190154184886,0.17884521484375002,-0.45458984375000006,10.130175781250001,0.030487804878048783,0.030487804878048783,0.06097560975609757,-218.0,128.375,49.75
2021-10-23 16:23:59.55,1020.490234375,22.89,-3.7030923048202276,0.45891241090628343,33.05999805974499,0.17406005859375,-0.45937500000000003,10.118212890625001,0.030487804878048783,-0.06097560975609757,0.0,-218.875,127.125,50.125
2021-10-23 16:23:59.74,1020.515625,22.89,-3.5212239639345086,0.1994990677549306,32.59044293661904,0.16568603515625002,-0.45159912109375006,10.130175781250001,-0.030487804878048783,0.030487804878048783,0.030487804878048783,-220.0,128.125,49.375
2021-10-23 16:23:59.92,1020.482666015625,22.9,-3.3788174723851423,0.004354355687974233,32.13590906013338,0.15791015625000002,-0.4557861328125,10.12957763671875,0.0,0.06097560975609757,0.06097560975609757,-219.125,125.875,48.125
2021-10-23 16:24:00.12,1020.5107421875,22.89,-3.2176439680996007,-0.1930904434707231,31.989412662051645,0.172265625,-0.44741210937500003,10.115222167968751,-0.06097560975609757,0.06097560975609757,0.0,-216.25,129.625,47.875
2021-10-23 16:24:00.31,1020.46630859375,22.89,-3.1167160840494588,-0.3294602725040967,31.74013204604242,0.16209716796875,-0.45698242187500004,10.108642578125,-0.030487804878048783,0.0,0.0,-219.0,128.125,49.25
2021-10-23 16:24:00.49,1020.53076171875,22.89,-3.0490275730754695,-0.4358111025948397,31.478174981230683,0.160302734375,-0.46954345703125006,10.110437011718751,0.0,0.0,-0.030487804878048783,-218.625,126.75,44.5
2021-10-23 16:24:00.71,1020.493896484375,22.89,-2.9508658835251835,-0.5490649859200102,31.464557696507217,0.16927490234375,-0.4557861328125,10.1170166015625,-0.030487804878048783,-0.030487804878048783,0.06097560975609757,-218.875,131.25,51.625
2021-10-23 16:24:00.89,1020.484130859375,22.89,-2.9177834859902165,-0.6150232082992009,31.25714556290393,0.16448974609375,-0.47313232421875,10.12060546875,0.030487804878048783,0.0,0.0,-218.25,126.375,48.625
2021-10-23 16:24:01.07,1020.47607421875,22.9,-2.8550373439754,-0.6849539646093161,31.197895373564457,0.16927490234375,-0.45758056640625006,10.103857421875,0.0,0.0,0.030487804878048783,-216.125,127.75,46.875
2021-10-23 16:24:01.27,1020.479736328125,22.92,-2.7998166531264643,-0.7440001633980428,31.2051975870533,0.16748046875,-0.461767578125,10.121203613281251,0.030487804878048783,-0.030487804878048783,0.0,-217.5,129.875,49.875
2021-10-23 16:24:01.46,1020.495361328125,22.93,-2.746312948935636,-0.8031342371168986,31.231224645654326,0.17645263671875,-0.45339355468750003,10.119409179687501,-0.030487804878048783,-0.030487804878048783,0.0,-217.125,130.0,55.25
2021-10-23 16:24:01.65,1020.48095703125,22.93,-2.774413217534569,-0.1161757419789797,29.970586335010285,-0.45698242187500004,-0.5395263671875,10.10684814453125,0.8231707317073171,0.06097560975609757,-24.878048780487806,-221.375,130.5,52.25
2021-10-23 16:24:01.84,1020.452392578125,22.94,-2.6990864987791516,-0.3905335544402102,30.241121016928926,0.22729492187500003,-0.45997314453125004,10.10684814453125,-0.06097560975609757,0.12195121951219513,-0.39634146341463417,-215.625,129.125,49.5
2021-10-23 16:24:02.03,1020.482666015625,22.97,-1.1938634918194402,-1.491866461512829,31.078409163622986,0.75665283203125,-1.091015625,10.93408203125,43.59756097560976,-6.189024390243903,2.408536585365854,-229.375,150.625,36.0
2021-10-23 16:24:02.21,1020.490234375,23.03,3.133138852101322,-1.1672192425389631,26.89436867004306,-0.112451171875,-1.990625,14.76160888671875,117.19512195121952,0.48780487804878053,-89.54268292682927,-230.375,188.75,24575.875
2021-10-23 16:24:02.39,1020.506103515625,23.03,25.104083563327446,-1.6739794888581396,28.795915776002456,-0.01375732421875,8.96259765625,8.783154296875,274.2987804878049,-13.78048780487805,-13.109756097560977,-280.75,198.0,-66.375
2021-10-23 16:24:02.60,1020.488037109375,23.09,34.97473780362021,-2.329914185347506,28.147576641079223,-2.2980712890625004,7.1825195312500005,5.81217041015625,89.51219512195122,-88.8109756097561,-0.3353658536585366,-285.375,189.125,-59.125
2021-10-23 16:24:02.79,1020.516357421875,23.13,42.88493931012127,-7.7140410927544885,26.959967106716164,-0.0035888671875000003,7.8135620117187505,3.5870727539062504,22.896341463414636,-120.12195121951221,36.12804878048781,-275.25,192.625,-48.5
2021-10-23 16:24:02.97,1020.466796875,23.16,46.89520343955067,-5.357627850753785,24.889822345406117,-0.9701904296875,7.2865966796875,5.8151611328125,36.03658536585366,-43.140243902439025,-32.25609756097561,-259.625,187.25,-30.5
2021-10-23 16:24:03.17,1020.465576171875,23.18,41.21129407714952,-6.508337185942984,18.242463260837752,-2.6126953125,7.28001708984375,5.379711914062501,28.475609756097562,-28.963414634146343,-10.670731707317074,-245.875,169.875,24574.875
2021-10-23 16:24:03.35,1020.47607421875,23.22,38.2283391042341,-3.8136643878113574,12.107703218513784,-3.1390625,8.752648925781251,6.31700439453125,-125.00000000000001,-105.79268292682927,-53.17073170731708,-230.125,121.875,40.25
2021-10-23 16:24:03.54,1020.499755859375,23.62,33.765228141908004,-2.7417151667907387,6.345526283184594,-0.8224487304687501,5.955126953125,8.766406250000001,-76.58536585365854,-78.32317073170732,-74.26829268292684,-209.625,82.0,54.25
2021-10-23 16:24:03.73,1020.52197265625,23.64,29.378338650654733,-3.0026818484560387,3.3726746893289743,-0.0777587890625,4.312023925781251,9.153405761718751,-53.10975609756098,-47.28658536585366,-35.36585365853659,-185.625,56.625,60.625
2021-10-23 16:24:03.91,1020.552978515625,23.62,25.987543027689732,-3.276662906824879,2.7067654026847188,0.0705810546875,2.7807739257812503,9.416589355468751,-19.603658536585368,-29.08536585365854,-18.01829268292683,-180.875,58.25,59.25
2021-10-23 16:24:04.10,1020.536376953125,23.58,25.892664596611908,-4.214561977609805,3.9313808283726552,0.485693359375,3.1504272460937504,10.007556152343751,25.64024390243903,-20.60975609756098,5.609756097560976,-173.25,62.25,57.75
2021-10-23 16:24:04.31,1020.513671875,23.56,22.656014398097785,-1.9224181726423977,4.748849017876266,-0.13278808593750002,3.02720947265625,10.32935791015625,-29.84756097560976,23.8109756097561,-10.335365853658537,-178.125,55.0,58.125
2021-10-23 16:24:04.49,1020.52197265625,23.47,20.913475378525924,-1.3087383241473118,4.680811026624949,0.3349609375,3.42796630859375,8.95841064453125,-34.237804878048784,6.463414634146342,-20.0,-188.875,54.75,57.875
2021-10-23 16:24:04.68,1020.5439453125,23.41,18.857987573249535,-0.24329573668138782,3.212948058365258,-2.170068359375,3.38729248046875,10.402331542968751,-30.762195121951223,-42.804878048780495,-16.85975609756098,-159.75,35.375,54.625
2021-10-23 16:24:04.87,1020.542724609375,23.38,13.661681478425978,-5.8465746784463395,1.8382993157624636,2.0390747070312503,1.59046630859375,11.030383300781251,-58.38414634146342,-71.85975609756098,5.945121951219512,-140.5,10.5,36.5
2021-10-23 16:24:05.06,1020.521484375,23.36,11.826610178218388,-11.48273609474933,13.804727808445131,1.7136840820312502,0.23985595703125,8.94764404296875,-29.542682926829272,-36.859756097560975,8.841463414634147,-143.375,8201.875,35.875
2021-10-23 16:24:05.24,1020.522216796875,23.34,18.741251557430985,-9.435665419408734,18.070019745871893,0.6477905273437501,1.7675170898437502,10.3263671875,143.2317073170732,14.02439024390244,12.225609756097562,-164.25,109.0,41.25
2021-10-23 16:24:05.43,1020.501953125,23.34,31.101875433670966,-5.360367037423458,21.276727042454038,0.44262695312500006,9.25269775390625,6.83499755859375,98.35365853658537,76.46341463414635,17.195121951219512,-182.375,118.125,47.375
2021-10-23 16:24:05.62,1020.4951171875,23.35,21.889681492622184,-11.103551739742299,18.165400405767446,2.74249267578125,4.88743896484375,7.419384765625001,-184.51219512195124,-64.54268292682927,23.384146341463417,-154.0,48.125,56.0
2021-10-23 16:24:05.80,1020.521240234375,23.36,18.737172531635498,-10.583814536899059,15.089005155715153,2.18621826171875,2.5415161132812503,9.7102783203125,-23.658536585365855,12.317073170731708,-8.658536585365855,-149.375,25.75,47.75
2021-10-23 16:24:05.99,1020.515625,23.39,14.91943015030453,-11.102654534972695,9.664303231572704,2.37822265625,1.49476318359375,10.118212890625001,-37.59146341463415,-17.896341463414636,-53.23170731707317,-136.375,13.0,39.875
2021-10-23 16:24:06.20,1020.5341796875,23.4,11.270191028708572,-11.296035746358724,8.167831868811023,2.42607421875,0.23447265625000002,9.747363281250001,-10.670731707317074,8.902439024390244,-4.695121951219512,-139.5,12.875,47.125
2021-10-23 16:24:06.39,1020.54736328125,23.4,11.517484581440737,-13.168867331746702,21.496176205340486,1.9421752929687501,0.5102172851562501,9.947741699218751,8.384146341463415,8.719512195121952,26.250000000000004,-149.125,8201.0,42.625
2021-10-23 16:24:06.58,1020.481201171875,23.42,10.201824382309292,-11.781723649013845,19.46179189343575,1.4361450195312502,0.9648071289062501,9.832299804687501,13.475609756097562,12.560975609756099,32.13414634146342,-160.375,16.25,46.375
2021-10-23 16:24:06.78,1020.525390625,23.43,9.376714856738017,-11.030154073191929,17.852171314978623,1.5593627929687501,1.0353881835937502,9.88433837890625,13.201219512195124,5.975609756097562,24.29878048780488,-176.25,25.25,50.125
2021-10-23 16:24:06.96,1020.528076171875,23.45,9.45073844209292,-9.399322445682358,17.782330765373903,1.13946533203125,1.45648193359375,9.88553466796875,20.182926829268293,19.481707317073173,41.951219512195124,-188.375,32.75,54.25
2021-10-23 16:24:07.15,1020.52685546875,23.46,9.566232022916566,-8.602781603831756,16.907963639321927,1.3284790039062502,1.78486328125,9.8275146484375,8.536585365853659,10.884146341463415,22.682926829268293,-194.875,38.0,55.0
2021-10-23 16:24:07.36,1020.51220703125,23.49,9.898254268484266,-7.85641655276835,14.882307461943533,0.9941162109375,2.1760498046875,10.11163330078125,1.4939024390243905,-0.24390243902439027,-1.981707317073171,-193.25,37.75,56.75
2021-10-23 16:24:07.54,1020.49560546875,23.51,9.971367461712264,-5.971467553292873,12.186953641551064,0.346923828125,2.15032958984375,10.61048583984375,-2.774390243902439,6.890243902439025,-24.603658536585368,-198.5,36.5,54.25
2021-10-23 16:24:07.74,1020.501220703125,23.54,11.673885830748846,-5.465646335157297,12.312318092675223,0.048449707031250004,1.93140869140625,10.6708984375,35.274390243902445,-14.146341463414636,8.170731707317074,-195.75,51.375,56.625
2021-10-23 16:24:07.94,1020.554443359375,23.55,12.766512467950111,-6.231584892347886,13.050023934325528,1.04854736328125,3.1761474609375004,9.712670898437501,-3.4451219512195124,-9.542682926829269,23.719512195121954,-203.75,55.875,59.125
2021-10-23 16:24:08.12,1020.53955078125,23.56,12.74259930669334,-6.693066007022924,11.465761747252543,1.4259765625,3.0607055664062504,9.3561767578125,-22.77439024390244,-4.024390243902439,-12.957317073170733,-205.0,47.25,55.625
2021-10-23 16:24:08.30,1020.53076171875,23.58,12.754006864530945,-6.648954005555917,9.118883757116826,1.0993896484375,2.20296630859375,9.3310546875,-4.298780487804878,-7.957317073170732,-34.390243902439025,-214.625,45.125,51.25
2021-10-23 16:24:08.50,1020.537109375,23.57,13.084540756985266,-3.2345203637091333,9.843800982495758,-0.6836791992187501,2.4296630859375004,10.107446289062501,2.5,25.51829268292683,1.4939024390243905,-234.375,60.5,56.0
2021-10-23 16:24:08.68,1020.517822265625,23.59,15.636258762452034,0.7643433573283718,13.477721612484027,-1.5533813476562501,3.6020263671875004,9.553564453125,15.579268292682928,42.28658536585366,44.87804878048781,-252.625,79.5,43.75
2021-10-23 16:24:08.87,1020.54638671875,23.6,18.449759771446626,2.2615379286126047,14.543532291793206,-0.8619262695312501,4.673901367187501,8.6575439453125,0.7926829268292683,17.073170731707318,16.189024390243905,-263.375,76.375,38.875
2021-10-23 16:24:09.09,1020.5361328125,23.63,20.88229859772466,2.6793353344888353,13.21567609991107,-0.9337036132812501,4.54649658203125,8.45477294921875,9.420731707317074,-13.871951219512196,-20.335365853658537,-247.25,76.625,49.75
2021-10-23 16:24:09.28,1020.557861328125,23.63,21.332476169135244,3.1386584759880978,12.921338137818235,-1.35718994140625,4.074560546875,8.8369873046875,-5.152439024390245,-13.414634146341465,6.341463414634147,-235.875,69.75,53.75
2021-10-23 16:24:09.46,1020.517333984375,23.63,21.526456181415217,3.659164967597854,10.321875197181967,-1.3135253906250002,4.39456787109375,9.732409667968751,-2.25609756097561,-22.25609756097561,-36.28048780487805,-228.625,61.25,50.75
2021-10-23 16:24:09.66,1020.525390625,23.63,19.837308210303714,6.0913355353646494,9.927505090424352,-1.5593627929687501,2.90399169921875,9.316699218750001,-13.658536585365855,24.390243902439025,-7.591463414634147,-240.0,55.125,45.875
2021-10-23 16:24:09.85,1020.53369140625,23.64,19.407536509291102,6.782934202742083,8.461151613046502,-1.81177978515625,3.5721191406250004,9.301745605468751,-9.481707317073171,-13.567073170731708,-23.170731707317074,-236.375,56.125,51.25
2021-10-23 16:24:10.03,1020.521728515625,23.64,20.65128079349785,6.480183320578082,9.773374640150033,-1.1669799804687502,3.50572509765625,9.252099609375001,12.317073170731708,-1.0365853658536586,11.79878048780488,-236.875,69.875,48.75
2021-10-23 16:24:10.24,1020.52392578125,23.65,21.17717790010806,6.463345782562693,10.290139333256644,-1.40863037109375,4.270153808593751,8.783154296875,-14.634146341463415,-5.884146341463415,7.134146341463415,-234.75,63.75,49.25
2021-10-23 16:24:10.43,1020.533447265625,23.68,22.30206797967919,6.2943241211695,10.652955317783169,-1.0114624023437502,4.3604736328125,9.050524902343751,1.676829268292683,1.0060975609756098,3.26219512195122,-230.375,65.25,52.5
2021-10-23 16:24:10.61,1020.546142578125,23.69,21.88781405409436,5.777399632673892,10.982762426872672,-0.69923095703125,3.8030029296875,9.367541503906251,-7.103658536585367,3.9939024390243905,11.097560975609756,-237.125,60.125,46.5
2021-10-23 16:24:10.80,1020.525390625,23.69,20.745577779039102,5.810244700010153,11.153061903264227,-0.9989013671875001,3.15401611328125,9.54937744140625,-7.500000000000001,3.536585365853659,6.189024390243903,-237.75,64.375,45.875
2021-10-23 16:24:10.99,1020.51513671875,23.69,20.794492785112794,5.902295303863967,12.613779393700437,-1.0611083984375,3.6211669921875003,9.49554443359375,-3.4451219512195124,11.036585365853659,25.000000000000004,-243.375,71.625,50.0
2021-10-23 16:24:11.18,1020.53564453125,23.7,22.07242146768914,6.1649008178642,15.159533217003428,-1.24892578125,4.459765625,8.89261474609375,-6.7682926829268295,15.701219512195124,40.457317073170735,-253.75,83.5,46.0
2021-10-23 16:24:11.37,1020.56494140625,23.71,21.823621542508146,6.523693733422814,15.22250567279715,-1.303955078125,3.8233398437500004,9.38907470703125,-4.817073170731708,3.5670731707317076,3.8414634146341466,-258.625,84.625,39.625
2021-10-23 16:24:11.56,1020.537841796875,23.72,23.071718904275997,6.9153123166325665,16.702890691106784,-1.1089599609375,4.039868164062501,8.805285644531251,9.176829268292684,17.77439024390244,21.981707317073173,-262.0,92.875,41.625
2021-10-23 16:24:11.74,1020.560546875,23.73,24.6398013864285,6.47928718501532,16.640188474824637,-1.0652954101562502,4.664929199218751,8.548083496093751,8.445121951219512,-6.829268292682928,0.24390243902439027,-257.125,96.125,42.625
2021-10-23 16:24:11.92,1020.5341796875,23.76,26.950300057306297,5.743125205362734,17.174227711701302,-0.8613281250000001,5.06927490234375,8.63660888671875,21.34146341463415,-3.628048780487805,12.682926829268293,-252.0,96.5,42.25
2021-10-23 16:24:12.13,1020.526611328125,23.78,25.06561524550291,2.047192379212292,15.080180905665198,-0.16748046875,4.533337402343751,8.720947265625,-32.896341463414636,-63.90243902439025,0.030487804878048783,-228.875,83.75,54.875
2021-10-23 16:24:12.31,1020.553466796875,23.8,26.033582489190646,2.200833959467497,17.278863570321533,0.022729492187500002,4.2049560546875,10.375415039062501,30.914634146341466,30.243902439024392,33.32317073170732,-243.625,96.75,46.25
2021-10-23 16:24:12.49,1020.571044921875,23.81,26.790337731297846,4.618314456404049,17.76779987151333,-0.8750854492187501,4.605114746093751,8.70120849609375,8.323170731707318,39.63414634146342,-2.5914634146341466,-256.625,98.625,37.625
2021-10-23 16:24:12.69,1020.541015625,23.91,27.537634804831878,4.876393151027117,17.416854337658087,-1.4319580078125,5.107556152343751,8.476306152343751,-2.408536585365854,-13.201219512195124,-1.3109756097560976,-254.375,107.25,41.625
2021-10-23 16:24:12.87,1020.521240234375,25.35,28.59201978744868,-1.1311022183294166,19.513822187475732,1.3984619140625,4.92572021484375,8.912353515625,9.725609756097562,-45.03048780487805,57.10365853658537,-240.75,120.75,41.125
2021-10-23 16:24:13.06,1020.57470703125,24.86,27.904886537748645,-3.497160891202534,17.76267370446806,1.1825317382812501,5.221203613281251,8.59234619140625,-25.670731707317074,-36.18902439024391,-14.969512195121952,-223.5,105.75,41.625
2021-10-23 16:24:13.26,1020.5556640625,24.56,27.067157524282248,-3.565822785775178,14.328949250247197,0.6220703125,4.5638427734375,9.849047851562501,-6.2804878048780495,-34.08536585365854,-58.14024390243903,-206.875,96.75,49.0
2021-10-23 16:24:13.44,1020.5400390625,24.37,27.592757471886433,-4.584091702140807,13.557019676354932,1.12989501953125,4.85513916015625,10.0667724609375,9.02439024390244,-22.713414634146343,-23.475609756097562,-191.0,99.625,52.75
2021-10-23 16:24:13.63,1020.566162109375,24.22,27.5208443645967,-5.002466866674531,12.315616471842954,1.03778076171875,5.04534912109375,9.4447021484375,-12.164634146341465,-21.189024390243905,-34.024390243902445,-187.5,93.25,48.5
2021-10-23 16:24:13.82,1020.537353515625,24.13,26.83792393852359,-5.1957862587156045,11.969163522689591,1.30096435546875,4.63681640625,9.374719238281251,-14.786585365853659,-3.5670731707317076,-20.823170731707318,-182.375,84.25,48.5
2021-10-23 16:24:14.00,1020.53076171875,24.09,27.60048476398479,-5.420081185444878,12.367909272127752,0.9109741210937501,5.31810302734375,9.9973876953125,2.408536585365854,-9.939024390243903,-7.439024390243903,-179.625,90.0,50.625
2021-10-23 16:24:14.19,1020.553466796875,24.08,29.11342062877281,-6.102095252699658,13.534799269624681,1.6030273437500002,5.24273681640625,9.34241943359375,18.658536585365855,5.0304878048780495,6.829268292682928,-185.25,92.25,52.125
2021-10-23 16:24:14.38,1020.5302734375,24.09,28.09327718221095,-6.127880038393304,13.594834309591494,0.9534423828125,4.1289916992187505,9.215014648437501,-4.2682926829268295,-8.109756097560977,-9.420731707317074,-178.75,93.375,53.875
2021-10-23 16:24:14.56,1020.539306640625,24.1,28.077033267369963,-5.298914234060614,14.300735842463535,0.5299560546875001,5.03936767578125,9.250903320312501,-6.432926829268293,4.664634146341464,0.9146341463414634,-178.625,90.0,50.0
2021-10-23 16:24:14.75,1020.531005859375,24.09,28.342489780969217,-5.803126938493379,14.818394413699755,1.4002563476562502,5.1009765625000005,9.500329589843751,3.3841463414634148,2.103658536585366,4.969512195121951,-179.75,87.25,51.875
2021-10-23 16:24:14.95,1020.54638671875,24.07,28.999243199411993,-6.46144788550595,15.235772203492516,1.32369384765625,5.41619873046875,9.3310546875,2.957317073170732,-5.640243902439025,5.335365853658537,-174.5,91.125,52.875
2021-10-23 16:24:15.13,1020.54638671875,24.09,28.916358821714866,-7.131786549217396,15.41982907020746,1.5174926757812501,4.76781005859375,9.08402099609375,3.3841463414634148,-3.8719512195121957,3.048780487804878,-175.125,89.5,53.625
2021-10-23 16:24:15.31,1020.539306640625,24.1,28.034140309838097,-6.857978617750162,15.031416710557965,1.28780517578125,4.83599853515625,9.180322265625001,-16.06707317073171,-0.9146341463414634,-13.658536585365855,-177.875,90.5,49.875
2021-10-23 16:24:15.51,1020.510498046875,24.13,26.47157035941781,-6.664765010520557,14.232459623471694,1.3703491210937502,5.1667724609375005,9.41300048828125,-29.420731707317074,5.640243902439025,0.853658536585366,-180.25,67.125,54.75
2021-10-23 16:24:15.69,1020.55517578125,24.14,24.63752225595696,-5.053698385624132,14.855299667338551,0.5329467773437501,3.92562255859375,9.884936523437501,-9.085365853658537,25.853658536585368,17.28658536585366,-190.75,66.125,52.5
2021-10-23 16:24:15.88,1020.521240234375,24.12,23.058294845957217,-3.7375701644506636,15.711049872160459,0.1614990234375,3.4943603515625004,11.230761718750001,9.390243902439025,21.646341463414636,30.54878048780488,-197.0,61.875,53.25
2021-10-23 16:24:16.06,1020.49658203125,24.13,22.445040401588706,-3.8824731150278,16.362828353978024,0.44741210937500003,3.2132324218750004,10.427453613281251,15.457317073170733,-3.231707317073171,16.25,-198.0,78.875,44.625
2021-10-23 16:24:16.25,1020.540771484375,24.13,26.535255520114593,-2.963874387665668,19.196533075088254,0.88944091796875,4.61827392578125,9.736596679687501,69.39024390243902,39.93902439024391,32.28658536585366,-209.875,102.5,48.25
2021-10-23 16:24:16.44,1020.50634765625,24.12,26.189998356297142,-4.253325142015034,18.865228260462967,1.0748657226562501,4.880261230468751,9.092395019531251,-10.701219512195124,-10.853658536585368,10.823170731707318,-207.625,94.75,51.125
2021-10-23 16:24:16.62,1020.538818359375,24.15,23.065654040906338,-4.230115424986968,17.27397748495007,0.6507812500000001,4.6942382812500005,9.33524169921875,-59.93902439024391,-5.609756097560976,-0.8841463414634148,-216.875,75.125,50.125
2021-10-23 16:24:16.82,1020.536376953125,24.21,20.536311238420275,-4.134039810674446,19.977453497612125,0.49765625,3.3615722656250004,10.587756347656251,-17.713414634146343,22.073170731707318,69.20731707317074,-230.125,81.0,53.125
2021-10-23 16:24:17.00,1020.541015625,24.23,20.295139027171775,-2.073674363551583,18.161545830810336,0.5790039062500001,3.5033325195312504,9.816149902343751,8.536585365853659,34.63414634146342,-10.548780487804878,-231.125,64.625,49.5
2021-10-23 16:24:17.19,1020.51708984375,24.25,16.218347466766602,-0.9849603582889371,13.331677085360052,0.49047851562500006,2.6719116210937504,9.7437744140625,-51.03658536585366,11.067073170731708,-38.35365853658537,-219.0,23.5,43.125
2021-10-23 16:24:17.38,1020.507568359375,24.21,10.4223609036397,-2.7980743259936305,7.573440325631694,-0.1471435546875,-0.03050537109375,10.014733886718751,-47.07317073170732,-74.14634146341464,-89.14634146341464,-189.25,45.875,51.25
2021-10-23 16:24:17.56,1020.530029296875,24.2,25.49536540495411,1.0091162483732463,13.700847631360267,0.16748046875,3.8843505859375003,10.5763916015625,301.6768292682927,32.86585365853659,96.92073170731709,-222.125,175.625,-32760.75
2021-10-23 16:24:17.75,1020.516845703125,24.18,27.45541159738527,2.4874541065068403,15.002972641221547,1.7238525390625001,8.909960937500001,0.7979248046875,-184.45121951219514,77.25609756097562,-32.6829268292683,-241.0,106.125,38.625
2021-10-23 16:24:17.94,1020.5,24.18,28.082369292686156,-0.27775703699895815,12.998468359953046,-1.7693115234375,3.9698852539062504,11.323474121093751,179.45121951219514,28.689024390243905,3.7500000000000004,-238.25,172.625,24579.625
2021-10-23 16:24:18.13,1020.49462890625,24.2,13.204169631992709,-3.0280981793210793,9.223656354737184,1.93739013671875,6.713574218750001,3.3029541015625004,-463.87195121951225,-31.920731707317074,-81.25,-219.875,79.125,49.0
2021-10-23 16:24:18.31,1020.492431640625,24.21,36.21535110680679,-0.9595608754193422,15.788827711967121,0.41690673828125,4.1678710937500005,7.656250000000001,372.0426829268293,63.14024390243903,38.201219512195124,-228.25,117.0,35.875
2021-10-23 16:24:18.51,1020.535400390625,24.22,20.69682687164241,-3.8526177914903257,12.942012267042902,-0.0825439453125,0.7105957031250001,9.932788085937501,-187.43902439024393,-77.34756097560977,-0.2134146341463415,-220.875,75.25,49.125
2021-10-23 16:24:18.70,1020.50537109375,24.25,40.79120336820977,-3.7126324140631843,18.845490280983526,1.2812255859375001,6.297863769531251,6.64598388671875,288.9329268292683,55.82317073170732,53.9329268292683,-238.125,126.625,35.625
2021-10-23 16:24:18.88,1020.49560546875,24.25,28.75198885762535,-4.9610919725091485,13.322622549270013,0.5479003906250001,4.81805419921875,8.22269287109375,-197.34756097560978,-55.15243902439025,-23.262195121951223,-216.375,50.25,54.75
2021-10-23 16:24:19.07,1020.532470703125,24.25,19.544871861277194,-15.2578493278323,20.892619036052462,2.3459228515625004,-0.40853271484375003,9.66541748046875,-129.96951219512195,-89.1158536585366,-17.164634146341466,-187.25,8200.75,45.75
2021-10-23 16:24:19.26,1020.48291015625,24.26,31.853584239983963,-7.242816483669078,26.44619655739966,1.1580078125000002,0.25002441406250003,10.648767089843751,336.2804878048781,140.0,-13.597560975609758,-229.125,145.875,29.625
2021-10-23 16:24:19.45,1020.504150390625,24.26,29.03685040947725,-8.517890935195066,22.31765777905072,0.6406127929687501,9.022412109375,5.3988525390625,-158.56707317073173,-32.86585365853659,32.34756097560976,-208.75,60.625,54.375
2021-10-23 16:24:19.64,1020.4892578125,24.28,33.827020811047774,-4.934853594882972,25.564470237719238,0.9337036132812501,1.222607421875,10.965783691406251,196.7378048780488,69.96951219512195,-6.341463414634147,-225.625,152.125,26.125
2021-10-23 16:24:19.82,1020.5087890625,24.27,16.280270056819333,-11.023577833371583,20.688609565014517,2.4099243164062503,6.985729980468751,5.6883544921875,-435.3963414634147,-81.12804878048782,11.615853658536587,-212.25,47.625,54.25
2021-10-23 16:24:20.01,1020.49755859375,24.28,36.56835694597481,-6.199048967998759,24.3374510404597,0.9540405273437501,1.7166748046875002,9.50870361328125,433.2317073170732,87.16463414634147,-9.542682926829269,-223.875,125.75,32.875
2021-10-23 16:24:20.20,1020.50537109375,24.28,8.175797016051966,-7.736917501125663,20.694495481045553,1.34522705078125,-1.48638916015625,9.89630126953125,-431.89024390243907,-51.3109756097561,-59.72560975609757,-219.625,84.375,41.625
2021-10-23 16:24:20.39,1020.51513671875,24.29,31.680441914741355,-6.218972947535041,28.037237272097897,1.820751953125,8.4948486328125,6.001782226562501,290.9146341463415,81.82926829268294,129.96951219512195,-224.125,99.625,45.375
2021-10-23 16:24:20.57,1020.50048828125,24.29,28.657320834372033,-7.158787215619469,29.365488415844656,1.1005859375,1.11494140625,9.14383544921875,49.66463414634147,-1.402439024390244,26.371951219512198,-224.5,150.625,23.25
2021-10-23 16:24:20.78,1020.49609375,24.3,32.54854978451313,-6.534320971061677,25.850755802191216,1.471435546875,10.16845703125,4.999890136718751,-42.37804878048781,25.853658536585368,20.731707317073173,-202.5,63.0,53.375
2021-10-23 16:24:20.96,1020.489990234375,24.32,32.48101061399343,-10.439674931042475,26.31895759896786,2.5145996093750003,1.0443603515625002,11.481982421875001,127.43902439024392,-33.35365853658537,50.54878048780488,-203.375,110.625,41.0
2021-10-23 16:24:21.15,1020.510498046875,24.32,38.23396590188982,-14.622891071564784,27.882297380755876,2.82503662109375,4.842578125,6.648974609375,286.00609756097566,64.35975609756098,57.743902439024396,-197.25,150.25,16410.125
2021-10-23 16:24:21.33,1020.489013671875,24.32,9.477063160631458,-21.529982839594553,19.50410671805702,2.4565795898437504,-0.5281616210937501,10.4447998046875,-494.69512195121956,-207.0426829268293,-85.82317073170732,-177.625,62.25,54.875
2021-10-23 16:24:21.53,1020.517822265625,24.32,22.613448649028722,-17.786831175801225,19.53081429494501,3.5481933593750004,4.3461181640625,8.920129394531251,185.51829268292684,62.31707317073171,-63.65853658536586,-207.875,154.25,29.75
2021-10-23 16:24:21.72,1020.5224609375,24.33,31.075588349214108,-14.84090036915842,19.53788621439919,1.7717041015625001,8.907568359375,4.6164794921875005,9.359756097560977,52.07317073170732,3.26219512195122,-212.875,130.875,42.25
2021-10-23 16:24:21.90,1020.49951171875,24.33,16.87785852207008,-18.53017883931569,19.928461400294225,2.48887939453125,3.5960449218750004,9.427355957031251,-92.7439024390244,-2.408536585365854,25.945121951219516,-213.5,144.125,8222.0
2021-10-23 16:24:22.10,1020.498779296875,24.34,29.82038538955286,-13.553097026520867,18.96994405231729,1.2088500976562502,9.425561523437501,3.27364501953125,58.41463414634147,89.45121951219512,-8.323170731707318,-219.75,114.375,41.5
2021-10-23 16:24:22.29,1020.466064453125,24.35,28.323153420283134,-11.539316261036593,21.747005708333035,1.7190673828125,1.5635498046875,9.0283935546875,59.72560975609757,38.75,1.402439024390244,-230.125,137.875,32.625
2021-10-23 16:24:22.47,1020.486572265625,24.36,34.20399071646891,-8.89477357260772,19.079247026053206,0.17705078125,7.78006591796875,3.43514404296875,-35.88414634146342,12.80487804878049,-15.79268292682927,-226.375,111.75,49.5
2021-10-23 16:24:22.66,1020.531494140625,24.39,41.63127869683411,-5.770620684457521,23.99388044055549,0.86551513671875,6.0903076171875,7.90806884765625,156.3109756097561,106.21951219512196,69.54268292682927,-227.625,104.5,50.25
2021-10-23 16:24:22.84,1020.517822265625,24.4,35.759694629070864,-2.1498463001167214,23.8554705330572,0.14415283203125,1.54859619140625,11.14163818359375,41.58536585365854,63.9329268292683,-5.060975609756098,-229.375,100.875,49.875
2021-10-23 16:24:23.03,1020.508056640625,24.41,29.057590972203442,0.19604066645387938,23.262533766122438,0.576611328125,2.67669677734375,11.5980224609375,-30.0609756097561,49.96951219512196,-13.841463414634148,-238.5,110.25,38.375
2021-10-23 16:24:23.24,1020.502685546875,24.42,21.24401155296099,-4.777281899738872,19.27490185206103,2.4446166992187504,0.7632324218750001,12.851733398437501,-48.35365853658537,-78.56707317073172,-28.475609756097562,-232.875,100.125,47.25
2021-10-23 16:24:23.42,1020.525390625,24.42,17.89127488309965,-6.716414585778339,17.806461076222458,2.28251953125,3.1821289062500004,10.14871826171875,-55.94512195121952,-18.10975609756098,-27.408536585365855,-239.0,107.75,45.375
2021-10-23 16:24:23.60,1020.49072265625,24.42,17.02682542791664,-13.035407426801505,14.731439022104446,1.95772705078125,4.3461181640625,9.128283691406251,-66.6158536585366,-128.20121951219514,-38.65853658536586,-232.25,112.25,43.75
2021-10-23 16:24:23.79,1020.52001953125,24.43,13.028360786512211,-20.001359719057525,11.647903912018824,2.6838745117187504,3.725244140625,8.884240722656251,-131.58536585365854,-148.20121951219514,-38.68902439024391,-214.875,96.75,51.0
2021-10-23 16:24:23.98,1020.521484375,24.44,2.587165277982848,-28.238727876839977,16.090634425027666,4.5805908203125005,-0.153125,12.477294921875002,-135.1219512195122,-158.75,48.07926829268293,-200.5,93.125,57.625
2021-10-23 16:24:24.16,1020.50634765625,24.44,2.4576296283104915,-28.840099523923794,11.260324642595082,2.988330078125,3.5015380859375003,9.165966796875,-115.54878048780489,-59.024390243902445,-35.97560975609756,-201.375,49.625,55.375
2021-10-23 16:24:24.36,1020.515625,24.43,-1.4819392081772458,-32.498358806188385,18.060093059046764,3.33525390625,-0.892431640625,2.93389892578125,33.90243902439025,11.402439024390246,66.73780487804879,-186.375,59.75,56.375
2021-10-23 16:24:24.57,1020.488037109375,24.41,-2.873846767409068,-32.940567595464586,18.21184868345986,4.57281494140625,-0.29368896484375,2.9021972656250004,-25.121951219512198,98.90243902439025,-20.0609756097561,-188.375,78.25,59.5
2021-10-23 16:24:24.75,1020.495361328125,24.4,-4.929766720606757,-24.18498611215334,14.869203198730993,4.15172119140625,1.2513183593750001,7.251904296875001,-121.03658536585367,173.47560975609758,-30.27439024390244,-198.5,67.625,59.75
2021-10-23 16:24:24.94,1020.475341796875,24.4,-3.9917574339267925,-23.65711211438269,16.170961585122246,2.7167724609375004,0.5778076171875001,8.615075683593751,-13.932926829268293,-20.121951219512198,5.579268292682928,-179.75,72.125,58.25
2021-10-23 16:24:25.13,1020.515625,24.4,-2.355838672382335,-18.76036948915629,16.945256286261706,2.2053588867187504,0.78297119140625,8.8716796875,-2.225609756097561,58.04878048780488,10.03048780487805,-200.625,76.375,55.375
2021-10-23 16:24:25.31,1020.50390625,24.41,5.28649348047968,-19.325014627928315,25.89940764288224,1.66224365234375,2.85614013671875,8.449389648437501,109.08536585365854,-52.713414634146346,126.85975609756099,-197.0,130.25,40.375
2021-10-23 16:24:25.50,1020.504150390625,24.42,1.5124089365342543,-19.366309455703796,38.84591600570046,1.67420654296875,0.56763916015625,8.299853515625001,-3.536585365853659,-26.615853658536587,184.66463414634148,-158.5,145.375,32.625
2021-10-23 16:24:25.69,1020.488525390625,24.43,0.6606787526305589,-14.473142237408942,48.336287351158255,3.8622192382812504,1.2214111328125001,7.7328125000000005,9.847560975609756,136.46341463414635,190.88414634146343,-162.0,137.5,51.5
2021-10-23 16:24:25.87,1020.52197265625,24.42,-3.364318501105322,-11.020808169650568,46.983157690916556,2.30345458984375,-1.6425048828125002,9.965087890625,-24.84756097560976,63.20121951219513,37.43902439024391,-193.625,120.0,64.0
2021-10-23 16:24:26.07,1020.51611328125,24.39,-7.645660603188302,-10.257159051891946,44.694480724258995,1.9206420898437502,-3.0487426757812504,11.324670410156251,-33.9329268292683,6.646341463414635,-0.8231707317073171,-179.0,121.5,59.75
2021-10-23 16:24:26.27,1020.507080078125,24.37,-8.029679249432789,-12.27871951053935,44.581730272091676,2.457177734375,-1.9954101562500002,9.864599609375,14.664634146341465,-30.365853658536587,21.676829268292686,-172.0,129.25,59.25
2021-10-23 16:24:26.45,1020.513916015625,24.36,-10.667816175252893,-7.72660552267263,39.150064119572924,0.87747802734375,-1.2333740234375001,9.53861083984375,-65.42682926829269,69.1158536585366,-45.36585365853659,-196.875,115.75,68.375
2021-10-23 16:24:26.63,1020.536376953125,24.35,-10.293526475900277,-4.550339255003876,37.77297640683898,-0.20277099609375002,-3.323291015625,9.718652343750001,46.951219512195124,25.457317073170735,4.481707317073171,-209.25,120.875,60.75
2021-10-23 16:24:26.83,1020.465087890625,24.33,-9.67496372110616,-4.14969203815128,38.65363039844969,0.5341430664062501,-1.3948730468750001,9.829309082031251,6.7682926829268295,-5.5182926829268295,35.03048780487805,-200.25,127.875,62.0
2021-10-23 16:24:27.01,1020.5029296875,24.33,-9.506281644675072,-3.3479560043984624,37.780946222602644,0.13338623046875,-1.4905761718750001,9.9973876953125,0.2134146341463415,-0.1829268292682927,0.701219512195122,-194.625,125.875,66.625
2021-10-23 16:24:27.19,1020.498046875,24.31,-9.362827152141135,-2.7237025995494855,36.942172595290444,0.12381591796875001,-1.5133056640625,9.99200439453125,0.5182926829268293,-0.030487804878048783,0.030487804878048783,-201.5,128.5,59.25
2021-10-23 16:24:27.38,1020.500732421875,24.31,-9.219653122005136,-2.2429499627544147,36.397536027906355,0.12321777343750001,-1.48818359375,9.990808105468751,0.27439024390243905,-0.06097560975609757,0.06097560975609757,-199.375,128.875,64.75
2021-10-23 16:24:27.57,1020.51708984375,24.3,-9.114108406207382,-1.879315175792038,36.00427065321182,0.1244140625,-1.50433349609375,9.9973876953125,0.15243902439024393,-0.06097560975609757,0.1829268292682927,-199.625,130.0,62.25
2021-10-23 16:24:27.75,1020.511474609375,24.29,-8.966350527749416,-1.6141076797056735,35.75549312130187,0.13099365234375002,-1.45528564453125,10.00635986328125,-0.06097560975609757,-0.09146341463414635,0.12195121951219513,-195.75,128.625,63.375
2021-10-23 16:24:27.96,1020.516357421875,24.27,-8.854008983944242,-1.4033707266104758,35.40020024253309,0.13577880859375002,-1.4558837890625,10.00635986328125,0.15243902439024393,-0.06097560975609757,-0.030487804878048783,-199.0,127.25,62.625
2021-10-23 16:24:28.14,1020.5107421875,24.27,-8.750565713293664,-1.2631611585939835,35.26640623081372,0.141162109375,-1.4558837890625,9.9949951171875,-0.06097560975609757,-0.06097560975609757,0.12195121951219513,-199.5,131.25,60.75
2021-10-23 16:24:28.33,1020.510986328125,24.25,-8.72224752534493,-1.1082376476710663,34.898538188690104,0.122021484375,-1.4702392578125,9.99320068359375,-0.15243902439024393,-0.030487804878048783,0.09146341463414635,-200.0,125.25,60.5
2021-10-23 16:24:28.52,1020.5126953125,24.23,-8.634377152222726,-1.0256356067438106,34.81166532836203,0.13338623046875,-1.45887451171875,9.99200439453125,0.2134146341463415,-0.06097560975609757,0.09146341463414635,-198.375,128.5,64.125
2021-10-23 16:24:28.71,1020.525146484375,24.23,-8.58882070249965,-0.9455543000487132,34.60727513462482,0.12979736328125002,-1.4582763671875,9.99619140625,0.0,-0.030487804878048783,0.06097560975609757,-197.75,125.375,60.375
2021-10-23 16:24:28.89,1020.519287109375,24.22,-8.50569385110284,-0.887518162643838,34.573944679351136,0.122021484375,-1.44451904296875,10.01533203125,0.09146341463414635,0.0,0.0,-198.625,129.25,59.625
2021-10-23 16:24:29.09,1020.508056640625,24.21,-8.408860906272787,-0.8600676040293348,34.710278150739406,0.12261962890625001,-1.4397338867187501,9.995593261718751,0.2134146341463415,-0.030487804878048783,0.12195121951219513,-193.625,128.75,65.75
2021-10-23 16:24:29.27,1020.52490234375,24.21,-8.36471082818922,-0.8044528685775612,34.402722963506605,0.12680664062500002,-1.4158081054687501,10.00994873046875,0.15243902439024393,-0.06097560975609757,0.06097560975609757,-199.25,123.625,59.375
2021-10-23 16:24:29.46,1020.52880859375,24.2,-8.30204990895672,-0.7915905392745642,34.38216376869601,0.13218994140625,-1.41939697265625,10.008752441406251,0.06097560975609757,-0.06097560975609757,0.1829268292682927,-200.625,129.75,59.625
2021-10-23 16:24:29.66,1020.51025390625,24.19,-8.19886327345904,-0.7927767867456799,34.59722674520227,0.12142333984375,-1.4062377929687502,9.99918212890625,0.2134146341463415,-0.09146341463414635,0.12195121951219513,-195.75,131.75,62.375
2021-10-23 16:24:29.84,1020.528564453125,24.18,-8.128267881144925,-0.7912590796580521,34.613150873617435,0.136376953125,-1.3936767578125,10.012939453125,0.1829268292682927,-0.030487804878048783,0.030487804878048783,-196.875,128.625,65.0
2021-10-23 16:24:30.03,1020.516357421875,24.17,-8.079414661223117,-0.7647108927539531,34.64269972649232,0.1160400390625,-1.3948730468750001,10.00516357421875,0.09146341463414635,-0.030487804878048783,0.1829268292682927,-198.0,129.75,64.625
2021-10-23 16:24:30.22,1020.54931640625,24.16,-8.047029739949197,-0.7623298259387984,34.687191260937404,0.12860107421875,-1.39248046875,9.987817382812501,-0.09146341463414635,-0.030487804878048783,0.09146341463414635,-198.125,130.375,65.5
2021-10-23 16:24:30.41,1020.4853515625,24.16,-8.010628954911233,-0.7563218186239081,34.72701423010452,0.1256103515625,-1.39666748046875,10.00037841796875,0.2134146341463415,-0.030487804878048783,0.06097560975609757,-195.5,129.0,63.25
2021-10-23 16:24:30.59,1020.558837890625,24.14,-7.893874390783417,-0.7481429303534927,34.86488333127533,0.11663818359375001,-1.3362548828125,10.016528320312501,0.30487804878048785,-0.1829268292682927,0.8231707317073171,-196.875,132.0,61.0
2021-10-23 16:24:30.79,1020.5009765625,24.13,-7.8605147053934585,-0.7496298167007607,34.87236869902358,0.13278808593750002,-1.36077880859375,10.007556152343751,0.0,0.0,0.030487804878048783,-201.25,133.875,59.0
2021-10-23 16:24:30.98,1020.517822265625,24.12,-7.857519496988701,-0.7643629492924019,34.97355786543679,0.13398437500000002,-1.3799194335937501,9.992602539062501,-0.2134146341463415,-0.06097560975609757,0.06097560975609757,-197.125,132.75,63.25
2021-10-23 16:24:31.17,1020.518798828125,24.11,-7.829781919796783,-0.7423430765851734,34.8286069053147,0.12680664062500002,-1.34522705078125,10.029687500000001,0.030487804878048783,-0.06097560975609757,0.06097560975609757,-199.125,128.75,62.375
2021-10-23 16:24:31.35,1020.51025390625,24.11,-7.817825246362098,-0.7283006483510375,34.72850725403866,0.12740478515625,-1.3589843750000001,10.0189208984375,0.06097560975609757,0.0,0.030487804878048783,-199.25,129.5,60.375
2021-10-23 16:24:31.55,1020.52734375,24.1,-7.807235610665172,-0.7484163669264035,34.797677979141774,0.136376953125,-1.3733398437500002,9.99619140625,0.030487804878048783,-0.06097560975609757,0.0,-195.5,130.0,64.5
2021-10-23 16:24:31.73,1020.5009765625,24.09,-7.828853234627017,-0.7227100355834303,34.66156749963043,0.12082519531250001,-1.3685546875,9.9949951171875,-0.09146341463414635,-0.030487804878048783,0.06097560975609757,-199.125,128.25,61.125
2021-10-23 16:24:31.92,1020.5234375,24.09,-7.78434381560566,-0.7402223238595432,34.679705769764205,0.13876953125000002,-1.34462890625,10.019519042968751,0.030487804878048783,-0.030487804878048783,-0.030487804878048783,-196.75,129.5,63.125
2021-10-23 16:24:32.12,1020.471435546875,24.08,-7.76316831452437,-0.7484832382816355,34.796684020810474,0.12860107421875,-1.3589843750000001,10.003369140625,-0.09146341463414635,0.0,0.030487804878048783,-195.625,131.625,59.625
2021-10-23 16:24:32.31,1020.533935546875,24.07,-7.755769447946093,-0.7410211963961653,34.749567174194134,0.12740478515625,-1.3524047851562502,10.016528320312501,-0.030487804878048783,-0.06097560975609757,-0.030487804878048783,-198.25,129.375,65.625
2021-10-23 16:24:32.49,1020.511962890625,24.06,-7.770498204072911,-0.737112318170338,34.72052650726545,0.12979736328125002,-1.36556396484375,10.00635986328125,-0.15243902439024393,0.0,0.030487804878048783,-197.75,130.125,58.125
2021-10-23 16:24:32.69,1020.566162109375,24.05,-7.773182072793336,-0.7421799766712874,34.81335330320333,0.12620849609375,-1.3769287109375001,9.993798828125001,0.0,0.0,0.0,-196.125,131.125,63.75
2021-10-23 16:24:32.87,1020.53857421875,24.04,-7.764568413752984,-0.7549721475350846,34.85641529726733,0.136376953125,-1.35958251953125,10.008752441406251,-0.12195121951219513,-0.030487804878048783,0.0,-199.125,132.25,65.75
2021-10-23 16:24:33.06,1020.544921875,24.03,-7.779705983951364,-0.7387579774872,34.599026577952415,0.13458251953125,-1.3482177734375,10.00994873046875,-0.06097560975609757,-0.09146341463414635,0.06097560975609757,-200.0,126.875,56.375
2021-10-23 16:24:33.28,1020.507080078125,24.02,-7.7860790805542655,-0.72551966040631,34.56235051048411,0.12142333984375,-1.3679565429687501,9.9902099609375,0.06097560975609757,-0.030487804878048783,0.06097560975609757,-198.125,129.125,60.0
2021-10-23 16:24:33.46,1020.50830078125,24.01,-7.778790187159403,-0.7033328546035753,34.47645584851751,0.11663818359375001,-1.3589843750000001,10.01832275390625,0.12195121951219513,0.0,0.030487804878048783,-198.125,127.875,59.25
2021-10-23 16:24:33.64,1020.494140625,24.01,-7.781165871629706,-0.6843785818822398,34.27515972786301,0.12261962890625001,-1.34761962890625,10.01593017578125,0.0,-0.030487804878048783,0.030487804878048783,-200.5,126.25,59.25
2021-10-23 16:24:33.84,1020.54150390625,24.0,-7.750030489545887,-0.6872626910422092,34.35087928854263,0.11484375000000001,-1.3458251953125,10.0069580078125,-0.09146341463414635,-0.09146341463414635,0.12195121951219513,-198.5,130.375,59.875
2021-10-23 16:24:34.02,1020.505859375,24.0,-7.738334215299492,-0.7220115861916897,34.478229301581116,0.13577880859375002,-1.366162109375,10.007556152343751,-0.030487804878048783,-0.09146341463414635,0.06097560975609757,-195.25,129.375,63.625
2021-10-23 16:24:34.21,1020.525634765625,23.99,-7.755697691303085,-0.6949025196081565,34.277779306884234,0.11903076171875,-1.3589843750000001,10.02430419921875,0.12195121951219513,-0.030487804878048783,0.0,-201.5,127.0,59.375
2021-10-23 16:24:34.42,1020.466552734375,23.98,-7.752981638243143,-0.7097570569953213,34.31123982339283,0.13099365234375002,-1.3673583984375002,10.01114501953125,0.06097560975609757,-0.030487804878048783,0.030487804878048783,-199.0,129.375,63.5
2021-10-23 16:24:34.60,1020.513427734375,23.97,-7.708190109164886,-0.7260422021087926,34.57387482028643,0.11484375000000001,-1.3559936523437501,10.0201171875,-0.09146341463414635,-0.030487804878048783,-0.030487804878048783,-193.75,131.5,64.0
2021-10-23 16:24:34.78,1020.503662109375,23.96,-7.706697436190017,-0.7107713353210382,34.59230923561304,0.11125488281250001,-1.3559936523437501,10.00994873046875,0.0,-0.06097560975609757,-0.06097560975609757,-198.875,130.75,62.375
2021-10-23 16:24:34.98,1020.474609375,23.95,-7.70809254346312,-0.7136489462593562,34.674738288919585,0.11962890625000001,-1.3619750976562501,10.0021728515625,-0.06097560975609757,-0.030487804878048783,0.0,-195.625,130.0,62.875
2021-10-23 16:24:35.16,1020.4912109375,23.94,-7.678102520427577,-0.718245332253683,34.779499301809345,0.1184326171875,-1.3404418945312502,10.01832275390625,-0.09146341463414635,-0.06097560975609757,0.0,-196.25,131.25,64.25
2021-10-23 16:24:35.35,1020.50537109375,23.94,-7.673834353757477,-0.7187815318299821,34.74051056487598,0.12979736328125002,-1.34881591796875,10.02430419921875,0.15243902439024393,-0.030487804878048783,0.06097560975609757,-200.875,131.5,63.75
2021-10-23 16:24:35.55,1020.521484375,23.93,-7.692917542158661,-0.7063339035382252,34.60161331332038,0.12620849609375,-1.3470214843750001,10.007556152343751,-0.030487804878048783,-0.030487804878048783,0.030487804878048783,-201.0,129.375,60.5
2021-10-23 16:24:35.73,1020.50390625,23.93,-7.714294708505889,-0.7106615761077053,34.52877010619399,0.131591796875,-1.3583862304687502,10.00037841796875,-0.030487804878048783,-0.06097560975609757,0.030487804878048783,-201.125,130.125,62.125
2021-10-23 16:24:35.91,1020.536376953125,23.92,-7.679063662962891,-0.7250426633999573,34.596373054556544,0.13099365234375002,-1.33565673828125,10.02789306640625,-0.030487804878048783,-0.030487804878048783,0.030487804878048783,-196.25,130.0,60.625
2021-10-23 16:24:36.10,1020.526611328125,23.92,-7.696262426710736,-0.7157968259157139,34.543905920338645,0.12381591796875001,-1.35479736328125,10.017724609375001,-0.09146341463414635,-0.030487804878048783,0.06097560975609757,-200.625,130.375,61.125
2021-10-23 16:24:36.29,1020.536376953125,23.9,-7.6912139992704915,-0.7150636570244848,34.53001195695413,0.12740478515625,-1.34761962890625,10.026696777343751,-0.030487804878048783,0.0,0.06097560975609757,-199.5,130.25,61.25
2021-10-23 16:24:36.48,1020.511474609375,23.89,-7.677974854284723,-0.7139326345347184,34.5061964859613,0.12620849609375,-1.342236328125,10.02490234375,0.06097560975609757,-0.030487804878048783,0.0,-198.375,128.625,66.0
2021-10-23 16:24:36.67,1020.505859375,23.89,-7.655722288717409,-0.7306149977412412,34.59155091340691,0.131591796875,-1.3434326171875002,10.027294921875,0.0,-0.030487804878048783,0.0,-198.0,131.375,62.5
2021-10-23 16:24:36.86,1020.5419921875,23.89,-7.625269976226053,-0.7371089822509976,34.70391366253212,0.12321777343750001,-1.33924560546875,10.017724609375001,0.09146341463414635,-0.030487804878048783,0.0,-198.25,132.25,66.125
2021-10-23 16:24:37.05,1020.525146484375,23.89,-7.580641681483944,-0.7500399881429171,34.786024760663416,0.13398437500000002,-1.3123291015625,10.0380615234375,-0.12195121951219513,0.0,0.030487804878048783,-196.25,130.875,64.5
2021-10-23 16:24:37.23,1020.511962890625,23.88,-7.559880080443894,-0.7543764648074356,34.87510421783404,0.12680664062500002,-1.3224975585937502,10.036865234375,-0.15243902439024393,-0.06097560975609757,0.0,-197.5,132.875,60.75
2021-10-23 16:24:37.42,1020.5390625,23.87,-7.58711869937018,-0.7557931301477125,34.91652471615096,0.12979736328125002,-1.3524047851562502,10.005761718750001,-0.06097560975609757,-0.030487804878048783,0.030487804878048783,-195.375,130.375,62.875
2021-10-23 16:24:37.61,1020.555908203125,23.87,-7.594432217185732,-0.7515712196793243,34.9335449004657,0.12501220703125002,-1.3386474609375,10.01832275390625,-0.09146341463414635,-0.09146341463414635,0.0,-198.25,132.0,63.125
2021-10-23 16:24:37.80,1020.5166015625,23.85,-7.5846559334417805,-0.7310459260617299,34.78655860423744,0.12501220703125002,-1.3254882812500002,10.036865234375,0.3353658536585366,-0.09146341463414635,0.06097560975609757,-200.0,129.25,62.625
2021-10-23 16:24:38.00,1020.483154296875,23.84,-7.5700212927551505,-0.7498324418096588,34.83658741902933,0.1375732421875,-1.3195068359375002,10.0189208984375,-0.2134146341463415,-0.06097560975609757,-0.030487804878048783,-197.25,131.625,61.875
2021-10-23 16:24:38.18,1020.527587890625,23.84,-7.567792410455287,-0.766160051621183,34.96699846802777,0.13278808593750002,-1.3434326171875002,10.026696777343751,-0.06097560975609757,-0.06097560975609757,0.030487804878048783,-197.125,133.5,63.75
2021-10-23 16:24:38.36,1020.487548828125,23.83,-7.564703868635563,-0.7431522796179434,34.836835516857185,0.12740478515625,-1.3195068359375002,10.032678222656251,0.12195121951219513,0.0,0.030487804878048783,-198.625,129.0,62.375
2021-10-23 16:24:38.55,1020.501220703125,23.82,-7.557434811921102,-0.7478428422286548,34.84404564646981,0.13398437500000002,-1.3218994140625,10.041650390625001,-0.15243902439024393,-0.030487804878048783,0.06097560975609757,-197.875,131.375,60.375
2021-10-23 16:24:38.74,1020.4755859375,23.82,-7.54724516455154,-0.7417308558971079,34.72942311061344,0.1351806640625,-1.3135253906250002,10.05181884765625,0.030487804878048783,-0.030487804878048783,0.06097560975609757,-199.125,129.5,58.875
2021-10-23 16:24:38.92,1020.4921875,23.81,-7.564637757268208,-0.7252243166257499,34.57942426188204,0.12860107421875,-1.327880859375,10.03028564453125,0.06097560975609757,-0.030487804878048783,0.06097560975609757,-198.625,127.5,60.5
2021-10-23 16:24:39.11,1020.492431640625,23.81,-7.514663665418094,-0.7393717521151302,34.75105383392513,0.1256103515625,-1.31173095703125,10.032678222656251,0.030487804878048783,-0.030487804878048783,0.12195121951219513,-195.125,131.875,61.875
2021-10-23 16:24:39.29,1020.5302734375,23.8,-7.455932770228991,-0.761711420399018,34.93438426159071,0.13278808593750002,-1.30694580078125,10.036865234375,0.24390243902439027,-0.030487804878048783,0.06097560975609757,-192.75,131.375,62.625
2021-10-23 16:24:39.48,1020.498291015625,23.8,-7.4235117834596585,-0.7594786842986703,34.94497569772389,0.13099365234375002,-1.3015625000000002,10.05780029296875,0.27439024390243905,-0.030487804878048783,0.0,-200.125,133.625,61.125
2021-10-23 16:24:39.69,1020.470458984375,23.79,-7.422815573637024,-0.7541026066109415,34.8673229063589,0.13458251953125,-1.2979736328125,10.0260986328125,0.030487804878048783,-0.030487804878048783,0.0,-200.375,131.625,61.625
2021-10-23 16:24:39.87,1020.465087890625,23.79,-7.367524952173101,-0.7592591602868949,34.97024247457548,0.12979736328125002,-1.29976806640625,10.027294921875,0.701219512195122,0.0,0.06097560975609757,-197.0,133.375,60.5
2021-10-23 16:24:40.05,1020.485595703125,23.78,-7.3103928823923745,-0.7304585975804,34.92614832198428,0.11723632812500001,-1.27105712890625,10.06019287109375,0.6707317073170732,-0.09146341463414635,0.7621951219512195,-199.625,131.5,59.25
2021-10-23 16:24:40.24,1020.4990234375,23.77,-7.26508592381349,-0.7380293398760693,34.995066057672744,0.12919921875,-1.2668701171875,10.0428466796875,0.2134146341463415,-0.030487804878048783,0.06097560975609757,-198.5,134.0,60.375
2021-10-23 16:24:40.43,1020.48388671875,23.77,-7.227935142260442,-0.7394628012770891,35.048678479040426,0.12740478515625,-1.26507568359375,10.044641113281251,0.24390243902439027,-0.030487804878048783,0.1829268292682927,-196.125,131.75,64.125
2021-10-23 16:24:40.62,1020.463623046875,23.76,-7.221865566994043,-0.7400263783330309,35.017509451874005,0.13338623046875,-1.2752441406250001,10.052416992187501,0.24390243902439027,-0.030487804878048783,0.09146341463414635,-199.0,132.375,61.75
2021-10-23 16:24:40.80,1020.485595703125,23.76,-7.200052609532024,-0.7378974932997975,35.03792025277999,0.12800292968750002,-1.25789794921875,10.05301513671875,0.0,0.0,0.06097560975609757,-198.875,133.5,61.375
2021-10-23 16:24:40.99,1020.450927734375,23.75,-7.197077654222961,-0.7331315477178445,34.94525131189843,0.13218994140625,-1.25550537109375,10.044641113281251,0.0,-0.06097560975609757,0.12195121951219513,-199.75,131.625,59.125
2021-10-23 16:24:41.17,1020.46142578125,23.75,-7.18680599913827,-0.7241419366177565,34.86631903309663,0.12919921875,-1.2567016601562502,10.04703369140625,0.15243902439024393,0.0,0.09146341463414635,-198.625,130.625,60.125
2021-10-23 16:24:41.36,1020.452392578125,23.74,-7.119344301226297,-0.7191214307316299,34.833414106703046,0.1303955078125,-1.2142333984375,10.05780029296875,0.24390243902439027,-0.06097560975609757,0.701219512195122,-197.375,129.625,61.375
2021-10-23 16:24:41.56,1020.467041015625,23.73,-7.051947074053976,-0.7240707074641424,34.876062567221645,0.12620849609375,-1.2184204101562501,10.051220703125,0.3353658536585366,-0.030487804878048783,-0.030487804878048783,-199.0,133.375,61.25
2021-10-23 16:24:41.74,1020.45751953125,23.73,-7.04501356559679,-0.6995900006840876,34.72614213695508,0.1184326171875,-1.225,10.050622558593751,0.15243902439024393,-0.06097560975609757,0.030487804878048783,-198.875,128.625,62.25
2021-10-23 16:24:41.92,1020.495361328125,23.73,-7.040005604810516,-0.7046139662789926,34.71367203461304,0.12800292968750002,-1.2297851562500002,10.04822998046875,-0.15243902439024393,-0.030487804878048783,0.06097560975609757,-198.375,131.125,59.75
2021-10-23 16:24:42.11,1020.46435546875,23.72,-7.034087669062425,-0.7213710250421591,34.809671351279505,0.1303955078125,-1.24892578125,10.0201171875,0.15243902439024393,0.0,-0.030487804878048783,-196.5,132.75,57.625
2021-10-23 16:24:42.30,1020.4716796875,23.71,-7.058724287139368,-0.712781239791604,34.79452812949278,0.12082519531250001,-1.2549072265625,10.025500488281251,0.0,-0.030487804878048783,0.06097560975609757,-195.75,129.625,60.125
2021-10-23 16:24:42.49,1020.5263671875,23.71,-7.046122545086993,-0.7060923880774534,34.74852127456693,0.12261962890625001,-1.2363647460937501,10.04224853515625,0.2134146341463415,-0.030487804878048783,-0.030487804878048783,-199.75,131.625,60.5
2021-10-23 16:24:42.69,1020.482421875,23.7,-7.035995636673761,-0.7248208901225578,34.88995175809277,0.12800292968750002,-1.244140625,10.0260986328125,-0.06097560975609757,-0.030487804878048783,0.09146341463414635,-198.625,135.0,61.375
2021-10-23 16:24:42.87,1020.473876953125,23.7,-7.073576511128931,-0.6836229248791185,34.686176293186634,0.10946044921875,-1.2423461914062501,10.023706054687501,-0.030487804878048783,-0.030487804878048783,-0.030487804878048783,-203.0,130.25,62.375
2021-10-23 16:24:43.06,1020.452392578125,23.69,-7.049849958715484,-0.708668953992339,34.7145211297607,0.13817138671875,-1.2297851562500002,10.05421142578125,-0.030487804878048783,-0.030487804878048783,0.030487804878048783,-200.5,133.5,59.0
2021-10-23 16:24:43.26,1020.496337890625,23.69,-7.040264636362603,-0.7105854204412925,34.80399132855821,0.11962890625000001,-1.2429443359375,10.032080078125,0.0,0.0,0.030487804878048783,-197.75,133.0,61.25
2021-10-23 16:24:43.44,1020.523681640625,23.69,-7.021870725522612,-0.7318706105661783,34.928306892560045,0.13278808593750002,-1.2345703125,10.048828125,-0.12195121951219513,-0.030487804878048783,0.12195121951219513,-197.0,133.75,60.75
2021-10-23 16:24:43.62,1020.53076171875,23.67,-7.037147928882108,-0.7435214878290456,34.89664715085096,0.14176025390625002,-1.2387573242187502,10.0452392578125,-0.1829268292682927,0.0,0.09146341463414635,-199.125,132.625,56.25
2021-10-23 16:24:43.82,1020.5322265625,23.66,-7.031718169920872,-0.7526757426276364,34.87122621166795,0.13876953125000002,-1.2297851562500002,10.03507080078125,-0.030487804878048783,-0.06097560975609757,0.06097560975609757,-196.875,130.75,59.0
2021-10-23 16:24:44.00,1020.490478515625,23.67,-7.0119824176524235,-0.7553693907880815,34.89029087543766,0.13099365234375002,-1.2261962890625,10.05421142578125,0.0,-0.06097560975609757,-0.06097560975609757,-199.875,134.125,57.625
2021-10-23 16:24:44.19,1020.49169921875,23.66,-7.015785408905077,-0.728751974051344,34.84039921368606,0.11424560546875001,-1.2357666015625002,10.037463378906251,0.09146341463414635,-0.030487804878048783,0.0,-200.25,132.625,58.5
2021-10-23 16:24:44.40,1020.513671875,23.66,-6.9688569640921285,-0.7661049696627076,35.14085308491651,0.12979736328125002,-1.23756103515625,10.03028564453125,0.06097560975609757,-0.030487804878048783,0.0,-191.25,133.75,66.0
2021-10-23 16:24:44.58,1020.47314453125,23.65,-6.968899112191966,-0.7860894738966182,35.314808059830675,0.136376953125,-1.23995361328125,10.03985595703125,-0.1829268292682927,-0.030487804878048783,0.06097560975609757,-194.375,134.875,61.875
2021-10-23 16:24:44.76,1020.484619140625,23.64,-7.007562739552668,-0.7245884290206671,35.105147328316576,0.10527343750000001,-1.23756103515625,10.052416992187501,0.030487804878048783,0.0,-0.030487804878048783,-199.875,130.5,60.375
2021-10-23 16:24:44.96,1020.50830078125,23.64,-6.988081228743662,-0.7438922508088419,35.211113760157545,0.13398437500000002,-1.2244018554687501,10.038659667968751,-0.15243902439024393,-0.030487804878048783,0.09146341463414635,-196.75,134.375,64.25
2021-10-23 16:24:45.14,1020.502197265625,23.63,-6.974423177689794,-0.7417603751578732,35.25435425989307,0.12381591796875001,-1.22799072265625,10.0572021484375,0.030487804878048783,-0.06097560975609757,0.030487804878048783,-197.625,133.875,66.125
2021-10-23 16:24:45.33,1020.511962890625,23.63,-6.9942137790552925,-0.7330090748369795,35.22729666216443,0.12381591796875001,-1.2333740234375001,10.04583740234375,-0.2134146341463415,-0.06097560975609757,0.0,-198.375,133.375,62.125
2021-10-23 16:24:45.54,1020.473876953125,23.63,-7.008843241643761,-0.7196419819295572,35.11533810959258,0.12680664062500002,-1.232177734375,10.02191162109375,0.09146341463414635,0.0,-0.09146341463414635,-197.625,130.75,61.75
2021-10-23 16:24:45.73,1020.547119140625,23.62,-6.992611894819311,-0.7266716653290269,35.25471894190829,0.12142333984375,-1.2363647460937501,10.04404296875,-0.030487804878048783,0.0,0.0,-198.875,137.125,62.25
2021-10-23 16:24:45.91,1020.47607421875,23.62,-7.008957858066811,-0.7166476791274529,35.14773433216875,0.12740478515625,-1.2363647460937501,10.04703369140625,0.06097560975609757,-0.030487804878048783,0.06097560975609757,-198.125,131.75,56.875
2021-10-23 16:24:46.10,1020.493408203125,23.61,-6.990614553429751,-0.7079209432670323,35.167170982187436,0.1184326171875,-1.2214111328125001,10.0428466796875,0.0,0.0,0.06097560975609757,-198.875,134.5,59.75
2021-10-23 16:24:46.29,1020.484375,23.61,-6.942655746373479,-0.7282074918084512,35.28833746172497,0.1303955078125,-1.2142333984375,10.058398437500001,0.15243902439024393,-0.030487804878048783,0.0,-196.5,135.25,62.125
2021-10-23 16:24:46.48,1020.508544921875,23.61,-6.952746869048784,-0.7135264843074285,35.22747728178731,0.12022705078125001,-1.2261962890625,10.047631835937501,0.06097560975609757,-0.06097560975609757,0.09146341463414635,-196.875,131.625,61.625
2021-10-23 16:24:46.67,1020.48828125,23.61,-6.9494091705363035,-0.70686469059984,35.087307024542326,0.12979736328125002,-1.213037109375,10.0572021484375,0.12195121951219513,-0.030487804878048783,-0.09146341463414635,-198.0,130.625,59.375
2021-10-23 16:24:46.87,1020.495849609375,23.59,-6.955561384980951,-0.7146274462305466,35.0963210269348,0.1303955078125,-1.2327758789062502,10.051220703125,0.06097560975609757,-0.030487804878048783,0.12195121951219513,-198.875,133.5,63.125
2021-10-23 16:24:47.05,1020.477294921875,23.59,-6.952627459511957,-0.7242779139801425,35.27017547991026,0.1184326171875,-1.2381591796875,10.04404296875,-0.09146341463414635,-0.06097560975609757,0.030487804878048783,-198.375,137.75,60.125
2021-10-23 16:24:47.23,1020.49267578125,23.59,-6.9858001414294435,-0.7090809819119955,35.07845339584908,0.12979736328125002,-1.24354248046875,10.0500244140625,0.27439024390243905,0.030487804878048783,-0.1829268292682927,-199.875,131.125,58.25
2021-10-23 16:24:47.43,1020.517333984375,23.58,-6.991653631648064,-0.6995579072265294,35.056697554736964,0.12082519531250001,-1.2297851562500002,10.041650390625001,-0.06097560975609757,0.030487804878048783,0.030487804878048783,-197.5,131.625,64.75
2021-10-23 16:24:47.61,1020.496337890625,23.57,-7.000240456715806,-0.6987436340797037,34.96073220316591,0.12979736328125002,-1.2285888671875,10.046435546875001,0.06097560975609757,-0.06097560975609757,0.09146341463414635,-198.75,130.5,64.375
2021-10-23 16:24:47.80,1020.511474609375,23.57,-7.006726118076907,-0.6905106911946057,34.90387981038312,0.11903076171875,-1.23157958984375,10.041650390625001,0.0,-0.06097560975609757,0.030487804878048783,-202.0,133.75,60.5
2021-10-23 16:24:48.01,1020.46875,23.56,-7.016432454394358,-0.6965053351745217,34.86290369685585,0.13099365234375002,-1.23397216796875,10.032080078125,-0.030487804878048783,0.0,0.09146341463414635,-198.5,131.0,63.375
2021-10-23 16:24:48.19,1020.517822265625,23.56,-7.013397673880249,-0.6909971189388888,34.781963895244864,0.1256103515625,-1.2333740234375001,10.05780029296875,0.1829268292682927,0.030487804878048783,-0.12195121951219513,-200.0,131.125,63.125
2021-10-23 16:24:48.37,1020.481689453125,23.56,-7.018076155385309,-0.6764748360620894,34.672296341196265,0.11962890625000001,-1.2244018554687501,10.0500244140625,-0.06097560975609757,0.0,0.06097560975609757,-199.0,129.375,60.75
2021-10-23 16:24:48.57,1020.491455078125,23.55,-7.015211995850145,-0.6771776020733875,34.649328121624485,0.11903076171875,-1.2309814453125,10.0392578125,0.0,-0.06097560975609757,-0.06097560975609757,-198.875,130.75,62.625
2021-10-23 16:24:48.76,1020.456787109375,23.55,-6.976991754696035,-0.7143272228351923,34.79375003631422,0.1351806640625,-1.2208129882812502,10.052416992187501,-0.030487804878048783,-0.09146341463414635,0.06097560975609757,-196.125,132.875,60.875
2021-10-23 16:24:48.95,1020.48193359375,23.55,-6.9898023809858865,-0.702549452521873,34.753327578639684,0.1184326171875,-1.232177734375,10.038659667968751,-0.06097560975609757,-0.030487804878048783,0.030487804878048783,-199.125,131.875,55.625
2021-10-23 16:24:49.14,1020.475830078125,23.54,-7.029192898891044,-0.6963575969279541,34.6251605254125,0.12860107421875,-1.2453369140625001,10.0332763671875,-0.030487804878048783,-0.030487804878048783,0.030487804878048783,-199.25,128.875,61.75
2021-10-23 16:24:49.33,1020.483642578125,23.54,-6.998610715922514,-0.7257954573335714,34.801091005753555,0.13218994140625,-1.2327758789062502,10.0428466796875,0.0,-0.030487804878048783,0.030487804878048783,-197.125,134.375,60.0
2021-10-23 16:24:49.51,1020.47802734375,23.53,-6.998455126484674,-0.7413498046059234,34.89898570810735,0.1303955078125,-1.2507202148437502,10.02789306640625,0.2134146341463415,-0.06097560975609757,0.030487804878048783,-195.5,132.0,62.125
2021-10-23 16:24:49.71,1020.4873046875,23.53,-7.006350818130496,-0.7527817974511056,34.95817714298903,0.13278808593750002,-1.2387573242187502,10.0392578125,-0.1829268292682927,-0.06097560975609757,0.0,-199.0,133.875,64.0
2021-10-23 16:24:49.90,1020.498291015625,23.52,-6.997433366378201,-0.7611949713097428,35.069043710825,0.12680664062500002,-1.24354248046875,10.02908935546875,0.12195121951219513,-0.09146341463414635,0.06097560975609757,-198.375,134.75,65.875
2021-10-23 16:24:50.09,1020.462890625,23.51,-6.973247535888894,-0.7510189815338533,35.051983673886845,0.12680664062500002,-1.2154296875000001,10.05421142578125,0.09146341463414635,-0.030487804878048783,0.030487804878048783,-198.125,132.25,63.875
2021-10-23 16:24:50.31,1020.462890625,23.51,-7.000460573718399,-0.7197681394089512,34.89168815856654,0.1184326171875,-1.2244018554687501,10.0452392578125,-0.1829268292682927,-0.06097560975609757,0.09146341463414635,-199.625,130.0,60.5
2021-10-23 16:24:50.49,1020.52978515625,23.51,-6.996215191606574,-0.7167281537629344,34.968340004557355,0.11723632812500001,-1.2327758789062502,10.03985595703125,-0.12195121951219513,-0.06097560975609757,0.1829268292682927,-197.0,132.625,64.0
2021-10-23 16:24:50.68,1020.48583984375,23.5,-6.974399276115616,-0.7084011959758737,35.044003230437916,0.112451171875,-1.2309814453125,10.053613281250001,0.15243902439024393,-0.030487804878048783,0.030487804878048783,-198.375,134.125,64.375
2021-10-23 16:24:50.86,1020.46240234375,23.51,-6.958121153650762,-0.7169030246723499,35.02423072880118,0.13099365234375002,-1.2190185546875,10.05181884765625,0.12195121951219513,-0.06097560975609757,-0.030487804878048783,-198.125,132.75,58.25
2021-10-23 16:24:51.06,1020.505859375,23.5,-6.953321179721218,-0.7191551612797874,35.00483670748336,0.12800292968750002,-1.2261962890625,10.051220703125,0.15243902439024393,-0.06097560975609757,0.030487804878048783,-199.875,133.5,61.125
2021-10-23 16:24:51.24,1020.4912109375,23.5,-6.933265931248669,-0.7497099134585606,35.11361066623628,0.1423583984375,-1.22021484375,10.052416992187501,-0.030487804878048783,-0.030487804878048783,0.0,-196.375,134.375,59.0
2021-10-23 16:24:51.43,1020.46435546875,23.49,-6.9510969648853695,-0.7290638074199267,35.01612652913059,0.12381591796875001,-1.2238037109375002,10.058398437500001,-0.06097560975609757,0.0,0.030487804878048783,-199.125,131.625,60.5
2021-10-23 16:24:51.63,1020.480224609375,23.49,-6.92695405292558,-0.7473645785639291,35.068102795568166,0.13577880859375002,-1.21124267578125,10.0572021484375,-0.030487804878048783,-0.09146341463414635,-0.030487804878048783,-196.0,132.625,60.625
2021-10-23 16:24:51.81,1020.458740234375,23.49,-6.897672535776312,-0.7567362559213756,35.22932652589369,0.1256103515625,-1.2166259765625,10.048828125,0.0,0.0,0.0,-196.375,135.5,64.125
2021-10-23 16:24:51.99,1020.43359375,23.48,-6.949298219998663,-0.7295229498967271,34.99961132834144,0.1303955078125,-1.22200927734375,10.037463378906251,-0.15243902439024393,-0.030487804878048783,0.15243902439024393,-198.5,128.375,61.0
2021-10-23 16:24:52.21,1020.45947265625,23.48,-6.945205716193034,-0.7162865592259178,34.91246038221531,0.12321777343750001,-1.208251953125,10.03985595703125,-0.030487804878048783,-0.06097560975609757,0.030487804878048783,-200.625,132.0,63.125
2021-10-23 16:24:52.39,1020.477294921875,23.47,-6.936843955237123,-0.732644462604658,34.9540165419002,0.13458251953125,-1.2184204101562501,10.051220703125,-0.09146341463414635,-0.06097560975609757,0.06097560975609757,-196.625,132.0,62.125
2021-10-23 16:24:52.58,1020.493408203125,23.47,-6.917486387270113,-0.7463405567969674,35.0679840069936,0.12860107421875,-1.2190185546875,10.056604003906251,-0.06097560975609757,-0.06097560975609757,0.0,-197.75,134.75,63.5
2021-10-23 16:24:52.80,1020.494140625,23.47,-6.963930113974935,-0.7192339762185773,34.837135947717854,0.12620849609375,-1.22559814453125,10.0260986328125,-0.030487804878048783,-0.06097560975609757,0.06097560975609757,-200.875,129.25,60.75
2021-10-23 16:24:52.98,1020.491943359375,23.47,-6.947539522740891,-0.728249120174396,34.96289199586961,0.12261962890625001,-1.22559814453125,10.047631835937501,-0.12195121951219513,0.0,-0.030487804878048783,-196.125,133.0,66.125
2021-10-23 16:24:53.16,1020.491943359375,23.46,-6.933079238666553,-0.7370404816701831,35.00481922543823,0.131591796875,-1.21602783203125,10.058398437500001,-0.06097560975609757,-0.030487804878048783,0.030487804878048783,-198.375,133.625,61.5
2021-10-23 16:24:53.36,1020.44189453125,23.46,-6.939134710220204,-0.720216055538027,34.87271257366628,0.1244140625,-1.2166259765625,10.052416992187501,0.15243902439024393,-0.09146341463414635,0.0,-201.625,131.5,64.375
2021-10-23 16:24:53.55,1020.508056640625,23.45,-6.914135304771858,-0.7357802768772991,34.98844642605125,0.12919921875,-1.2178222656250002,10.05301513671875,0.030487804878048783,-0.030487804878048783,0.0,-196.625,133.75,61.75
2021-10-23 16:24:53.73,1020.480712890625,23.46,-6.898098567013986,-0.7490006374476276,35.059266436929704,0.13338623046875,-1.2208129882812502,10.0548095703125,0.15243902439024393,-0.030487804878048783,-0.030487804878048783,-197.25,133.625,62.875
2021-10-23 16:24:53.93,1020.491455078125,23.45,-6.869639734428372,-0.7511395438535164,35.1045155516885,0.12919921875,-1.20526123046875,10.051220703125,0.1829268292682927,-0.030487804878048783,0.030487804878048783,-197.375,133.25,64.25
2021-10-23 16:24:54.13,1020.47216796875,23.44,-6.907055952319077,-0.7328376610481827,34.9822927504838,0.12919921875,-1.23397216796875,10.04822998046875,0.1829268292682927,0.030487804878048783,0.06097560975609757,-200.375,131.875,60.25
2021-10-23 16:24:54.31,1020.47705078125,23.44,-6.911714090587652,-0.7430959513231317,35.127653753907744,0.1244140625,-1.232177734375,10.0332763671875,-0.12195121951219513,-0.030487804878048783,0.12195121951219513,-194.625,133.125,65.25
2021-10-23 16:24:54.50,1020.509033203125,23.44,-6.9612108937148465,-0.7377912471955949,35.03483116177475,0.13218994140625,-1.2387573242187502,10.0452392578125,-0.2134146341463415,-0.06097560975609757,0.0,-200.25,132.5,61.625
2021-10-23 16:24:54.69,1020.494873046875,23.43,-6.929677451159,-0.7445283137978017,35.094290055525164,0.13099365234375002,-1.2184204101562501,10.0572021484375,0.2134146341463415,0.030487804878048783,-0.12195121951219513,-196.625,133.25,62.625
2021-10-23 16:24:54.88,1020.4619140625,23.43,-6.918273624393684,-0.7508509628461661,35.187521143324645,0.12740478515625,-1.2166259765625,10.06019287109375,-0.1829268292682927,-0.06097560975609757,0.09146341463414635,-196.75,134.25,62.625
2021-10-23 16:24:55.07,1020.500732421875,23.43,-6.914089433106709,-0.7442613659973226,35.127568258301395,0.1303955078125,-1.21602783203125,10.06318359375,0.12195121951219513,-0.030487804878048783,-0.06097560975609757,-198.25,132.625,58.875
2021-10-23 16:24:55.27,1020.482177734375,23.42,-6.921964837316164,-0.7375959002634451,35.15436608930182,0.12261962890625001,-1.22799072265625,10.047631835937501,0.0,-0.030487804878048783,0.0,-197.875,133.625,63.25
2021-10-23 16:24:55.45,1020.496826171875,23.41,-6.934795099517828,-0.7283182624061442,35.09319734744247,0.12740478515625,-1.22021484375,10.050622558593751,-0.06097560975609757,-0.030487804878048783,0.06097560975609757,-199.0,132.25,63.625
2021-10-23 16:24:55.63,1020.51806640625,23.42,-6.9027377671916135,-0.7263650496539757,35.08350070018757,0.1256103515625,-1.20107421875,10.061389160156251,0.12195121951219513,-0.06097560975609757,0.0,-198.625,133.375,60.375
2021-10-23 16:24:55.84,1020.4765625,23.41,-6.924861105743946,-0.7336224801047335,35.05334675430748,0.13458251953125,-1.2297851562500002,10.032678222656251,0.030487804878048783,-0.06097560975609757,0.030487804878048783,-197.25,131.5,63.25
2021-10-23 16:24:56.02,1020.473876953125,23.41,-6.916043163735002,-0.7431440736147712,35.13788123589111,0.1303955078125,-1.2178222656250002,10.05301513671875,-0.15243902439024393,0.0,0.030487804878048783,-198.5,135.0,64.0
2021-10-23 16:24:56.21,1020.47998046875,23.4,-6.923827261774924,-0.7366427818420733,35.04018112684755,0.13458251953125,-1.21004638671875,10.052416992187501,-0.09146341463414635,0.0,0.06097560975609757,-199.75,132.0,61.875
2021-10-23 16:24:56.42,1020.494384765625,23.39,-6.958895852297006,-0.7385165337997106,34.97027552094861,0.13697509765625002,-1.2309814453125,10.03507080078125,-0.1829268292682927,-0.030487804878048783,0.09146341463414635,-199.5,131.875,62.5
2021-10-23 16:24:56.61,1020.502685546875,23.39,-6.946731630037411,-0.7335019963591096,35.00065903499341,0.12381591796875001,-1.2214111328125001,10.040454101562501,0.06097560975609757,0.0,0.0,-198.5,133.5,61.5
2021-10-23 16:24:56.79,1020.503173828125,23.39,-6.924160170268478,-0.7303638362463422,34.99027730659196,0.1256103515625,-1.21363525390625,10.0548095703125,0.2134146341463415,-0.06097560975609757,0.0,-197.875,132.125,62.25
2021-10-23 16:24:56.99,1020.498291015625,23.38,-6.967197986197593,-0.7173999326829391,34.822308093204185,0.13099365234375002,-1.22918701171875,10.026696777343751,-0.09146341463414635,-0.030487804878048783,0.06097560975609757,-201.25,130.625,60.875
2021-10-23 16:24:57.18,1020.473388671875,23.37,-6.967398061427893,-0.7117560437547958,34.70504674455432,0.1303955078125,-1.21722412109375,10.05421142578125,0.06097560975609757,-0.030487804878048783,-0.030487804878048783,-198.875,129.375,61.5
2021-10-23 16:24:57.37,1020.494140625,23.38,-6.9284859458487436,-0.7337692351802044,34.904186220314685,0.1256103515625,-1.22320556640625,10.06497802734375,0.030487804878048783,-0.030487804878048783,-0.06097560975609757,-195.25,134.0,61.75
2021-10-23 16:24:57.57,1020.513916015625,23.36,-6.937674794619247,-0.7326462959093543,34.89708707463702,0.12501220703125002,-1.2327758789062502,10.04703369140625,0.12195121951219513,-0.09146341463414635,-0.09146341463414635,-198.75,132.5,61.625
2021-10-23 16:24:57.78,1020.480712890625,23.36,-6.912866666000399,-0.7436331214596693,34.99492180458466,0.13099365234375002,-1.2184204101562501,10.05181884765625,0.09146341463414635,0.030487804878048783,-0.030487804878048783,-197.75,134.125,63.25
2021-10-23 16:24:57.96,1020.50439453125,23.37,-6.910376199889004,-0.7334523922646359,34.96340689716187,0.12381591796875001,-1.2166259765625,10.055407714843751,0.09146341463414635,-0.06097560975609757,0.06097560975609757,-199.25,132.75,60.0
2021-10-23 16:24:58.14,1020.49072265625,23.36,-6.928523261200553,-0.7048673067947665,34.71720780867725,0.12381591796875001,-1.20406494140625,10.071557617187501,-0.06097560975609757,-0.06097560975609757,0.0,-202.5,129.5,60.875
2021-10-23 16:24:58.35,1020.481201171875,23.36,-6.936852133278378,-0.7064110510777609,34.792078047069495,0.12022705078125001,-1.232177734375,10.052416992187501,-0.12195121951219513,0.0,0.09146341463414635,-197.125,132.0,63.375
2021-10-23 16:24:58.54,1020.4892578125,23.36,-6.949579530716106,-0.7070870042822679,34.75210883941084,0.13099365234375002,-1.2285888671875,10.041650390625001,0.030487804878048783,0.06097560975609757,0.030487804878048783,-201.25,132.875,60.125
2021-10-23 16:24:58.72,1020.50927734375,23.36,-6.923299703008215,-0.704393967111101,34.7005049207864,0.1256103515625,-1.20526123046875,10.073352050781251,0.12195121951219513,-0.030487804878048783,-0.030487804878048783,-198.75,130.75,59.75
2021-10-23 16:24:58.93,1020.527099609375,23.35,-6.931338728610399,-0.7166063237098739,34.72674815631576,0.12919921875,-1.22799072265625,10.04703369140625,-0.030487804878048783,-0.09146341463414635,0.06097560975609757,-199.0,132.125,62.75
2021-10-23 16:24:59.11,1020.451904296875,23.35,-6.936366308800516,-0.6929124436814328,34.593737411878735,0.11783447265625001,-1.213037109375,10.0548095703125,0.09146341463414635,-0.030487804878048783,0.030487804878048783,-201.75,130.125,64.0
2021-10-23 16:24:59.29,1020.4931640625,23.34,-6.954036054224498,-0.6859057408169902,34.555826493648574,0.11903076171875,-1.2327758789062502,10.05301513671875,0.0,-0.030487804878048783,0.06097560975609757,-198.5,130.125,58.5
2021-10-23 16:24:59.50,1020.512939453125,23.34,-6.932835821346439,-0.6975219646654959,34.62194478017304,0.12381591796875001,-1.21602783203125,10.02908935546875,0.06097560975609757,-0.030487804878048783,0.0,-198.75,132.375,61.5
2021-10-23 16:24:59.68,1020.495849609375,23.34,-6.915405094429973,-0.7188321590054371,34.79689931715902,0.12680664062500002,-1.2238037109375002,10.043444824218751,-0.12195121951219513,0.030487804878048783,0.06097560975609757,-197.125,133.875,64.75
2021-10-23 16:24:59.87,1020.502197265625,23.33,-6.908427707040364,-0.7357416100740339,34.88354733529305,0.131591796875,-1.2184204101562501,10.052416992187501,-0.12195121951219513,-0.06097560975609757,0.0,-197.75,133.625,60.125
2021-10-23 16:25:00.08,1020.4892578125,23.33,-6.919603595448381,-0.7138853675126864,34.788080257517485,0.11783447265625001,-1.2154296875000001,10.032678222656251,0.030487804878048783,-0.030487804878048783,-0.030487804878048783,-200.75,131.875,58.875
2021-10-23 16:25:00.27,1020.50390625,23.33,-6.899369089327368,-0.7212897091493425,34.83152325618626,0.12620849609375,-1.2166259765625,10.05899658203125,0.1829268292682927,-0.06097560975609757,0.0,-197.875,132.25,63.25
2021-10-23 16:25:00.45,1020.49853515625,23.33,-6.912533074718071,-0.7221550000240895,34.80988612039307,0.12919921875,-1.2244018554687501,10.0548095703125,0.0,-0.030487804878048783,0.030487804878048783,-201.375,133.125,64.75
2021-10-23 16:25:00.65,1020.52099609375,23.32,-6.940144641131085,-0.7102848217996732,34.742842144987286,0.12142333984375,-1.22799072265625,10.032678222656251,-0.06097560975609757,-0.06097560975609757,0.06097560975609757,-201.375,132.125,62.125
2021-10-23 16:25:00.83,1020.52783203125,23.32,-6.926433014631201,-0.717850729319811,34.834407794286605,0.12321777343750001,-1.22559814453125,10.0452392578125,0.09146341463414635,-0.030487804878048783,0.030487804878048783,-196.25,132.25,61.0
2021-10-23 16:25:01.02,1020.461669921875,23.32,-6.919621890385489,-0.7337622045331279,34.88956256327561,0.13577880859375002,-1.21722412109375,10.0548095703125,-0.12195121951219513,0.0,0.06097560975609757,-197.75,132.75,62.125
2021-10-23 16:25:01.22,1020.52978515625,23.31,-6.931686835540381,-0.7411234340158314,34.85241313702812,0.13936767578125,-1.2208129882812502,10.041650390625001,-0.09146341463414635,0.030487804878048783,-0.030487804878048783,-198.625,131.75,59.875
2021-10-23 16:25:01.42,1020.478271484375,23.31,-6.887281813015658,-0.7492790035802807,35.071687996254965,0.122021484375,-1.21124267578125,10.061389160156251,0.0,0.030487804878048783,0.09146341463414635,-199.0,137.875,61.625
2021-10-23 16:25:01.60,1020.526123046875,23.31,-6.872307442036798,-0.7368935372007255,35.06903000847349,0.12022705078125001,-1.21124267578125,10.053613281250001,0.24390243902439027,-0.06097560975609757,0.0,-198.875,133.25,64.0
2021-10-23 16:25:01.78,1020.52197265625,23.31,-6.918855818281386,-0.706983521631161,34.895769857709205,0.1184326171875,-1.22021484375,10.038659667968751,-0.2134146341463415,-0.030487804878048783,0.15243902439024393,-201.0,131.125,57.0
2021-10-23 16:25:01.98,1020.498291015625,23.3,-6.915039655648061,-0.7049661063541954,34.906272448694196,0.122021484375,-1.2148315429687502,10.05181884765625,-0.06097560975609757,-0.030487804878048783,0.09146341463414635,-199.875,133.25,63.625
2021-10-23 16:25:02.17,1020.489501953125,23.3,-6.858007261090189,-0.743486029087901,35.136153667293456,0.13577880859375002,-1.20167236328125,10.05899658203125,0.0,0.0,0.0,-198.25,137.625,65.125
2021-10-23 16:25:02.36,1020.5390625,23.3,-6.8934249066905995,-0.7350468951667739,35.03942256166422,0.131591796875,-1.222607421875,10.04105224609375,-0.06097560975609757,-0.030487804878048783,0.09146341463414635,-200.5,132.75,60.0
2021-10-23 16:25:02.57,1020.5595703125,23.28,-6.915661767317177,-0.7346945771949248,34.96353852881504,0.13338623046875,-1.21602783203125,10.051220703125,-0.1829268292682927,-0.09146341463414635,0.09146341463414635,-199.875,131.875,63.625
2021-10-23 16:25:02.75,1020.48291015625,23.29,-6.876897977299315,-0.7533916508862952,35.23156677783286,0.12082519531250001,-1.2148315429687502,10.05181884765625,-0.09146341463414635,-0.06097560975609757,0.06097560975609757,-195.0,136.75,62.125
2021-10-23 16:25:02.93,1020.544189453125,23.28,-6.911486778412164,-0.7195216489973948,35.10690348582315,0.11783447265625001,-1.2178222656250002,10.055407714843751,-0.1829268292682927,0.0,0.27439024390243905,-199.875,131.875,60.25
2021-10-23 16:25:03.13,1020.545166015625,23.28,-6.9008484087241895,-0.7350808614229917,35.1485533099156,0.13458251953125,-1.2148315429687502,10.0332763671875,0.06097560975609757,-0.030487804878048783,-0.06097560975609757,-199.25,135.25,60.375
2021-10-23 16:25:03.32,1020.526611328125,23.28,-6.880434660379064,-0.7478131758084362,35.17666241052037,0.13697509765625002,-1.2058593750000002,10.074548339843751,0.0,-0.030487804878048783,0.0,-199.625,135.0,63.5
2021-10-23 16:25:03.51,1020.5224609375,23.28,-6.865630619848431,-0.7414597437469078,35.093067352076204,0.13458251953125,-1.1927001953125,10.07275390625,-0.030487804878048783,0.030487804878048783,-0.06097560975609757,-199.625,132.75,61.0
2021-10-23 16:25:03.72,1020.518310546875,23.27,-6.883656581490596,-0.7458093728884687,35.05437885645646,0.13338623046875,-1.2142333984375,10.043444824218751,-0.12195121951219513,-0.12195121951219513,0.06097560975609757,-199.75,133.375,60.75
2021-10-23 16:25:03.90,1020.506591796875,23.26,-6.879907692565608,-0.7671400962644754,35.081342549869,0.14534912109375,-1.213037109375,10.04583740234375,0.0,-0.030487804878048783,-0.030487804878048783,-199.0,134.125,63.125
2021-10-23 16:25:04.09,1020.5205078125,23.26,-6.873650818249344,-0.7662114631860238,35.036457829990006,0.1375732421875,-1.2058593750000002,10.05301513671875,0.09146341463414635,-0.030487804878048783,0.030487804878048783,-200.0,133.25,62.0
2021-10-23 16:25:04.28,1020.513427734375,23.27,-6.880239705504219,-0.7552506426807062,34.982995421057694,0.1303955078125,-1.21124267578125,10.03507080078125,0.06097560975609757,0.0,-0.030487804878048783,-198.125,131.625,61.5
2021-10-23 16:25:04.47,1020.516357421875,23.26,-6.856474159183652,-0.7604338149247203,35.03998511166837,0.13398437500000002,-1.20765380859375,10.05421142578125,0.1829268292682927,0.030487804878048783,-0.030487804878048783,-199.25,134.875,61.5
2021-10-23 16:25:04.66,1020.55029296875,23.27,-6.871342648542231,-0.7372442371869106,34.97255682636922,0.12142333984375,-1.21124267578125,10.04224853515625,0.0,0.0,0.06097560975609757,-197.375,130.75,60.875
2021-10-23 16:25:04.86,1020.51220703125,23.26,-6.902053414414125,-0.7431694674724115,34.91673557683225,0.1375732421875,-1.21961669921875,10.022509765625001,-0.15243902439024393,-0.06097560975609757,0.06097560975609757,-199.375,131.875,62.375
2021-10-23 16:25:05.07,1020.54443359375,23.26,-6.893503205986271,-0.7396740296809756,34.84526669057719,0.136376953125,-1.19927978515625,10.0619873046875,-0.06097560975609757,0.030487804878048783,0.06097560975609757,-199.25,131.0,63.375
2021-10-23 16:25:05.25,1020.544189453125,23.25,-6.840753443970404,-0.7684303737049959,35.03730089839073,0.13398437500000002,-1.2004760742187501,10.067370605468751,0.030487804878048783,-0.06097560975609757,0.0,-196.5,134.875,67.375
2021-10-23 16:25:05.43,1020.533203125,23.25,-6.872452991656259,-0.7503079905294002,34.756016664415405,0.14176025390625002,-1.19808349609375,10.06796875,-0.09146341463414635,-0.030487804878048783,0.0,-200.125,127.75,58.75
2021-10-23 16:25:05.64,1020.503173828125,23.25,-6.81747763306909,-0.7656085672534437,34.88095348139256,0.131591796875,-1.1831298828125,10.070361328125001,-0.030487804878048783,-0.06097560975609757,-0.06097560975609757,-198.125,134.375,63.75
2021-10-23 16:25:05.82,1020.492919921875,23.25,-6.793051603213815,-0.787250654980957,35.021309626449124,0.14056396484375,-1.2046630859375,10.06796875,0.09146341463414635,0.0,-0.06097560975609757,-196.875,134.625,63.25
2021-10-23 16:25:06.01,1020.495849609375,23.24,-6.8111128976671464,-0.7702979034309855,34.95602467676421,0.13099365234375002,-1.2028686523437502,10.060791015625,-0.06097560975609757,0.0,0.030487804878048783,-196.875,130.5,60.5
2021-10-23 16:25:06.22,1020.53369140625,23.24,-6.788058741495633,-0.7807575789156003,35.04361580900262,0.13577880859375002,-1.1927001953125,10.05181884765625,0.0,-0.030487804878048783,0.030487804878048783,-198.0,134.125,65.875
2021-10-23 16:25:06.41,1020.514404296875,23.24,-6.783994799743828,-0.7874060449354552,34.972491004710314,0.14893798828125002,-1.18671875,10.08411865234375,-0.030487804878048783,-0.030487804878048783,0.030487804878048783,-199.125,131.75,63.125
2021-10-23 16:25:06.59,1020.49560546875,23.23,-6.845292183622932,-0.7639073884912421,34.77666540475965,0.13398437500000002,-1.213037109375,10.047631835937501,-0.27439024390243905,-0.030487804878048783,0.12195121951219513,-202.0,130.875,57.0
2021-10-23 16:25:06.79,1020.47998046875,23.23,-6.820942193796445,-0.7667232112192058,34.91376485321433,0.12620849609375,-1.20406494140625,10.052416992187501,0.0,0.030487804878048783,-0.030487804878048783,-198.75,135.125,64.75
2021-10-23 16:25:06.98,1020.509521484375,23.22,-6.784384227518496,-0.7831129579620287,35.01608106625268,0.14176025390625002,-1.19329833984375,10.06796875,0.1829268292682927,0.030487804878048783,-0.030487804878048783,-197.75,134.75,60.375
2021-10-23 16:25:07.17,1020.5146484375,23.22,-6.8026485017192115,-0.7620857718164233,34.91248457411549,0.1303955078125,-1.198681640625,10.059594726562501,0.0,0.0,0.030487804878048783,-200.125,131.5,63.125
2021-10-23 16:25:07.37,1020.510498046875,23.22,-6.821501250212228,-0.7617152998592895,34.93436248297423,0.13398437500000002,-1.2124389648437501,10.04583740234375,-0.09146341463414635,0.030487804878048783,0.030487804878048783,-199.875,134.125,60.875
2021-10-23 16:25:07.56,1020.483154296875,23.22,-6.797566213957303,-0.7626513428289063,34.96402009119646,0.13398437500000002,-1.184326171875,10.07215576171875,-0.12195121951219513,0.030487804878048783,0.0,-196.5,131.5,66.25
2021-10-23 16:25:07.74,1020.5126953125,23.21,-6.789696835967102,-0.7595872618256235,34.93142847154237,0.13338623046875,-1.1950927734375,10.0691650390625,0.12195121951219513,-0.030487804878048783,-0.06097560975609757,-197.375,131.5,60.0
2021-10-23 16:25:07.94,1020.4951171875,23.21,-6.858307271812756,-0.7406160087545531,34.76169512000021,0.131591796875,-1.21722412109375,10.04404296875,-0.39634146341463417,-0.030487804878048783,0.24390243902439027,-202.625,131.625,56.5
2021-10-23 16:25:08.13,1020.5,23.21,-6.837177759254587,-0.7585096524768699,34.90606332004719,0.12979736328125002,-1.2070556640625,10.0548095703125,-0.06097560975609757,-0.09146341463414635,0.030487804878048783,-197.375,134.25,63.625
2021-10-23 16:25:08.31,1020.53173828125,23.2,-6.870517103667294,-0.7380873911625145,34.81208393273352,0.1256103515625,-1.21363525390625,10.062585449218751,-0.1829268292682927,-0.030487804878048783,0.09146341463414635,-199.75,130.5,65.5
2021-10-23 16:25:08.52,1020.49609375,23.2,-6.850642605213245,-0.7529495964296941,34.83876263768906,0.13996582031250002,-1.2046630859375,10.056005859375,0.15243902439024393,0.0,-0.06097560975609757,-199.125,133.375,59.625
2021-10-23 16:25:08.72,1020.51953125,23.19,-6.85076814472131,-0.767228360409028,34.93041743426325,0.1375732421875,-1.2070556640625,10.05780029296875,-0.27439024390243905,-0.030487804878048783,0.15243902439024393,-196.5,133.0,59.875
2021-10-23 16:25:08.90,1020.458740234375,23.19,-6.845984504709946,-0.7475878699162977,34.85318753044671,0.12620849609375,-1.198681640625,10.068566894531251,0.06097560975609757,0.0,0.0,-199.375,131.25,62.375
2021-10-23 16:25:09.08,1020.515625,23.19,-6.844943582035266,-0.7240798335901786,34.75643072106334,0.12082519531250001,-1.19569091796875,10.0691650390625,-0.030487804878048783,0.0,0.030487804878048783,-202.25,132.625,59.625
2021-10-23 16:25:09.29,1020.529052734375,23.19,-6.829836956161686,-0.7387565921829043,34.90418423029594,0.1256103515625,-1.2142333984375,10.05421142578125,0.030487804878048783,-0.030487804878048783,-0.030487804878048783,-197.625,134.5,64.25
2021-10-23 16:25:09.47,1020.509521484375,23.19,-6.826238638917717,-0.7231102971013593,34.844756570735356,0.12082519531250001,-1.1938964843750002,10.064379882812501,-0.030487804878048783,-0.06097560975609757,0.06097560975609757,-199.625,131.875,60.375
2021-10-23 16:25:09.66,1020.508056640625,23.18,-6.814088398117521,-0.7164006810712628,34.87619610200503,0.11962890625000001,-1.1944946289062501,10.060791015625,-0.09146341463414635,0.0,-0.030487804878048783,-200.125,134.25,60.625
2021-10-23 16:25:09.86,1020.522216796875,23.18,-6.7762501817628795,-0.7349903280041593,35.05115586618576,0.12620849609375,-1.1938964843750002,10.056604003906251,0.030487804878048783,0.0,0.0,-196.75,135.125,64.75
2021-10-23 16:25:10.04,1020.51806640625,23.18,-6.78030010882587,-0.7414371446688686,35.12608806872167,0.12800292968750002,-1.208251953125,10.05899658203125,0.030487804878048783,-0.030487804878048783,0.0,-196.5,133.875,60.25
2021-10-23 16:25:10.22,1020.517333984375,23.18,-6.78670557589802,-0.7242222703359225,34.96331279938791,0.12979736328125002,-1.18372802734375,10.067370605468751,0.0,0.0,0.0,-197.125,129.125,58.25
2021-10-23 16:25:10.42,1020.511962890625,23.17,-6.777228880830448,-0.7343942818992722,34.946563329521496,0.13577880859375002,-1.1849243164062502,10.05301513671875,-0.030487804878048783,-0.06097560975609757,0.06097560975609757,-198.375,132.25,61.625
2021-10-23 16:25:10.61,1020.5009765625,23.17,-6.7788646453694055,-0.7386881793142899,35.039487882720344,0.1244140625,-1.20107421875,10.05301513671875,-0.15243902439024393,-0.030487804878048783,0.030487804878048783,-198.75,135.0,63.5
2021-10-23 16:25:10.79,1020.510498046875,23.17,-6.79997914765703,-0.7170501064592565,34.83347058451961,0.12680664062500002,-1.1915039062500001,10.074548339843751,0.0,-0.06097560975609757,0.030487804878048783,-205.125,132.875,59.75
2021-10-23 16:25:11.00,1020.517822265625,23.17,-6.779276979150402,-0.725136317402242,34.92657665486163,0.122021484375,-1.1944946289062501,10.0380615234375,0.09146341463414635,-0.09146341463414635,0.030487804878048783,-197.875,133.875,62.375
2021-10-23 16:25:11.19,1020.565185546875,23.17,-6.757506460984563,-0.7488074120574818,35.05281097223224,0.13577880859375002,-1.1938964843750002,10.065576171875001,0.0,-0.030487804878048783,0.030487804878048783,-197.0,134.5,63.25
2021-10-23 16:25:11.37,1020.548583984375,23.17,-6.766691742898575,-0.7514303672741811,35.00630954625355,0.13697509765625002,-1.198681640625,10.038659667968751,0.1829268292682927,-0.030487804878048783,0.030487804878048783,-199.0,132.75,59.25
2021-10-23 16:25:11.56,1020.5283203125,23.16,-6.774398608343245,-0.7509329856908892,34.99175956774515,0.13218994140625,-1.1962890625,10.053613281250001,-0.030487804878048783,-0.030487804878048783,-0.030487804878048783,-199.125,133.0,63.375
2021-10-23 16:25:11.75,1020.518310546875,23.16,-6.749144725491143,-0.7625707541090477,35.0811199509764,0.13398437500000002,-1.1885131835937501,10.070361328125001,0.06097560975609757,-0.030487804878048783,0.06097560975609757,-199.75,135.75,64.375
2021-10-23 16:25:11.94,1020.5263671875,23.16,-6.763589293026501,-0.7473007940935872,35.09329167406828,0.12022705078125001,-1.20765380859375,10.053613281250001,0.12195121951219513,-0.030487804878048783,0.0,-201.125,135.75,60.625
2021-10-23 16:25:12.15,1020.52978515625,23.16,-6.7792256578721855,-0.7491494253014657,35.05068839904907,0.13338623046875,-1.1903076171875,10.05181884765625,-0.24390243902439027,-0.09146341463414635,0.0,-199.0,133.0,60.0
2021-10-23 16:25:12.33,1020.498046875,23.15,-6.747160192229665,-0.7590122423609381,35.21077636105213,0.12800292968750002,-1.1819335937500002,10.05899658203125,-0.15243902439024393,0.0,0.15243902439024393,-199.375,137.5,64.125
2021-10-23 16:25:12.52,1020.515380859375,23.15,-6.7521766607442855,-0.7530170691368366,35.16898973069518,0.13398437500000002,-1.18372802734375,10.079931640625,-0.1829268292682927,0.0,0.12195121951219513,-198.375,133.0,60.75
2021-10-23 16:25:12.70,1020.538330078125,23.15,-6.803019872833699,-0.7227256386824469,34.884935280616276,0.12800292968750002,-1.19808349609375,10.059594726562501,-0.06097560975609757,-0.06097560975609757,0.0,-201.375,129.25,58.75
2021-10-23 16:25:12.91,1020.5009765625,23.15,-6.755991645170687,-0.7348814207220172,34.97655381750935,0.12860107421875,-1.1795410156250001,10.055407714843751,0.1829268292682927,-0.030487804878048783,0.030487804878048783,-195.625,132.375,63.75
2021-10-23 16:25:13.09,1020.51513671875,23.15,-6.726746141869271,-0.7516557556518166,35.169385211338714,0.12501220703125002,-1.18970947265625,10.06019287109375,-0.06097560975609757,-0.030487804878048783,-0.030487804878048783,-199.0,137.75,65.5
2021-10-23 16:25:13.28,1020.512939453125,23.15,-6.7356861418598655,-0.7588781155543,35.15903826041454,0.13876953125000002,-1.19329833984375,10.067370605468751,0.0,-0.030487804878048783,0.030487804878048783,-197.625,133.375,58.625
2021-10-23 16:25:13.50,1020.528076171875,23.14,-6.743392402290127,-0.7529747876314834,35.17040728909691,0.12680664062500002,-1.18612060546875,10.055407714843751,-0.2134146341463415,-0.06097560975609757,0.09146341463414635,-199.375,134.75,61.125
2021-10-23 16:25:13.68,1020.54345703125,23.14,-6.718255790722324,-0.7578613956144974,35.134454645616444,0.14056396484375,-1.1645874023437501,10.073352050781251,-0.030487804878048783,0.0,0.030487804878048783,-198.125,132.625,63.0
2021-10-23 16:25:13.86,1020.521484375,23.14,-6.73305228586395,-0.7439667013172113,35.015966019809994,0.13218994140625,-1.18372802734375,10.05301513671875,0.030487804878048783,0.0,0.030487804878048783,-199.5,131.75,59.625
2021-10-23 16:25:14.06,1020.505859375,23.13,-6.7444581129363534,-0.7468394909156313,35.015811891472296,0.13398437500000002,-1.1950927734375,10.046435546875001,0.0,0.0,0.030487804878048783,-198.875,133.5,60.5
2021-10-23 16:25:14.25,1020.5078125,23.13,-6.732122541319657,-0.7148752333342364,34.95085890924148,0.11185302734375001,-1.17774658203125,10.062585449218751,0.15243902439024393,0.0,0.06097560975609757,-199.75,132.375,61.375
2021-10-23 16:25:14.44,1020.49462890625,23.13,-6.722221914742616,-0.7128640073748843,34.94543866691589,0.12321777343750001,-1.18133544921875,10.04583740234375,0.12195121951219513,-0.06097560975609757,0.06097560975609757,-198.625,132.5,63.25
2021-10-23 16:25:14.66,1020.517822265625,23.13,-6.749853351833536,-0.7134532535683598,34.83195021208898,0.13278808593750002,-1.1885131835937501,10.03387451171875,-0.09146341463414635,-0.06097560975609757,0.0,-199.25,130.75,59.375
2021-10-23 16:25:14.84,1020.51171875,23.12,-6.724707584634284,-0.7197828854286688,34.89032485809941,0.12620849609375,-1.1729614257812502,10.05181884765625,-0.06097560975609757,-0.030487804878048783,0.15243902439024393,-196.75,132.0,63.5
2021-10-23 16:25:15.02,1020.52099609375,23.12,-6.700951257126771,-0.723279395315361,34.89855468098052,0.12979736328125002,-1.1687744140625,10.052416992187501,0.06097560975609757,0.0,0.06097560975609757,-198.625,132.75,61.375
2021-10-23 16:25:15.24,1020.54833984375,23.11,-6.680843038194261,-0.7313574052201756,35.03082975793962,0.1256103515625,-1.1759521484375002,10.038659667968751,-0.030487804878048783,0.030487804878048783,0.06097560975609757,-195.5,134.0,58.125
2021-10-23 16:25:15.43,1020.501953125,23.12,-6.648643632536816,-0.7547371171448481,35.2253461217612,0.12979736328125002,-1.16817626953125,10.061389160156251,-0.1829268292682927,-0.06097560975609757,0.09146341463414635,-195.25,135.5,63.25
2021-10-23 16:25:15.61,1020.507568359375,23.11,-6.638941369282428,-0.7384698344150052,35.13369865404288,0.12800292968750002,-1.15740966796875,10.080529785156251,0.030487804878048783,0.0,0.030487804878048783,-199.5,132.875,60.25
2021-10-23 16:25:15.83,1020.4912109375,23.11,-6.623024448537006,-0.7240870550659982,35.12492542601399,0.11663818359375001,-1.1550170898437502,10.0500244140625,0.0,-0.09146341463414635,0.09146341463414635,-200.0,134.625,61.125
2021-10-23 16:25:16.02,1020.532958984375,23.11,-6.620741348530408,-0.7013920903349116,35.10761978617291,0.112451171875,-1.1699707031250002,10.070361328125001,0.12195121951219513,0.030487804878048783,0.030487804878048783,-196.625,132.25,59.5
2021-10-23 16:25:16.20,1020.531982421875,23.11,-6.5985902393473665,-0.7129396802191592,35.18935961685704,0.1256103515625,-1.1609985351562502,10.06497802734375,0.030487804878048783,-0.030487804878048783,0.06097560975609757,-197.875,135.0,63.75
2021-10-23 16:25:16.40,1020.501953125,23.11,-6.612084195390677,-0.6949540340553019,35.09801429513258,0.11663818359375001,-1.1615966796875001,10.05301513671875,0.0,-0.09146341463414635,0.09146341463414635,-196.0,129.875,63.0
2021-10-23 16:25:16.59,1020.51513671875,23.11,-6.605336950972996,-0.7036465969643999,35.160907290393695,0.122021484375,-1.1687744140625,10.064379882812501,0.0,-0.06097560975609757,-0.030487804878048783,-198.625,135.25,62.5
2021-10-23 16:25:16.78,1020.502197265625,23.1,-6.594770493354506,-0.7029808834294573,35.17335828452336,0.12261962890625001,-1.16219482421875,10.04703369140625,0.15243902439024393,0.0,0.0,-199.375,134.875,62.125
2021-10-23 16:25:16.98,1020.487548828125,23.1,-6.612880952687246,-0.6930002718019382,35.0381013145053,0.1256103515625,-1.1645874023437501,10.04822998046875,0.09146341463414635,-0.030487804878048783,0.030487804878048783,-200.875,132.625,59.0
2021-10-23 16:25:17.17,1020.521728515625,23.1,-6.598123803570747,-0.7110021507495878,35.112918688433005,0.13218994140625,-1.1639892578125002,10.07574462890625,0.0,0.0,0.12195121951219513,-197.25,134.25,60.875
2021-10-23 16:25:17.36,1020.5224609375,23.09,-6.599539069548693,-0.7277159873812891,35.147526370517134,0.136376953125,-1.1639892578125002,10.07574462890625,-0.15243902439024393,-0.030487804878048783,0.12195121951219513,-200.25,135.5,63.625
2021-10-23 16:25:17.54,1020.51318359375,23.1,-6.603738458452586,-0.7225941311677808,35.07232943862787,0.12919921875,-1.15740966796875,10.047631835937501,0.0,-0.030487804878048783,0.06097560975609757,-199.375,133.125,57.0
2021-10-23 16:25:17.75,1020.5302734375,23.09,-6.56564268514249,-0.7305191826100803,35.177138977844415,0.12740478515625,-1.14783935546875,10.08172607421875,0.0,0.030487804878048783,0.06097560975609757,-199.25,136.625,61.75
2021-10-23 16:25:17.93,1020.4921875,23.09,-6.565026150563768,-0.7504376032547646,35.27116082793654,0.1351806640625,-1.160400390625,10.070361328125001,-0.24390243902439027,-0.06097560975609757,0.06097560975609757,-195.0,133.625,64.125
2021-10-23 16:25:18.12,1020.52294921875,23.09,-6.556724158770972,-0.7484201042253834,35.24870131791079,0.13338623046875,-1.1484375,10.0739501953125,-0.030487804878048783,0.0,0.06097560975609757,-194.5,131.625,57.375
2021-10-23 16:25:18.33,1020.511962890625,23.08,-6.551568300013902,-0.7467296320255037,35.30636138208184,0.1244140625,-1.15322265625,10.05780029296875,-0.12195121951219513,-0.06097560975609757,0.09146341463414635,-197.375,135.0,62.0
2021-10-23 16:25:18.51,1020.52587890625,23.08,-6.493625156172691,-0.7518926413894438,35.3557853050574,0.131591796875,-1.126904296875,10.08292236328125,0.27439024390243905,-0.030487804878048783,0.09146341463414635,-197.75,135.125,64.5
2021-10-23 16:25:18.70,1020.5322265625,23.08,-6.498316373709133,-0.7310540849422976,35.250320745207695,0.12501220703125002,-1.1376708984375001,10.073352050781251,0.0,0.0,0.030487804878048783,-199.5,133.25,61.0
2021-10-23 16:25:18.91,1020.524169921875,23.08,-6.480021513780457,-0.7433729918889928,35.32952080443917,0.13099365234375002,-1.1460449218750002,10.06318359375,0.15243902439024393,-0.06097560975609757,0.09146341463414635,-196.125,134.75,61.375
2021-10-23 16:25:19.09,1020.528076171875,23.08,-6.471165944703059,-0.7448092161159328,35.32150319118456,0.131591796875,-1.1346801757812501,10.05780029296875,0.030487804878048783,-0.06097560975609757,0.09146341463414635,-198.5,134.625,62.25
2021-10-23 16:25:19.28,1020.529296875,23.07,-6.4963245179607565,-0.7122724184933732,35.155402352713445,0.11903076171875,-1.1406616210937501,10.06497802734375,-0.030487804878048783,-0.030487804878048783,0.24390243902439027,-200.875,132.5,59.0
2021-10-23 16:25:19.47,1020.548828125,23.07,-6.478664173018426,-0.720094312474358,35.06548465493548,0.13936767578125,-1.12451171875,10.0787353515625,0.030487804878048783,0.0,0.030487804878048783,-201.5,134.375,57.25
2021-10-23 16:25:19.67,1020.527099609375,23.07,-6.4152173658756535,-0.7687469334032168,35.379813192656165,0.14893798828125002,-1.1663818359375,10.056005859375,1.3414634146341464,-0.24390243902439027,2.073170731707317,-197.25,138.125,60.875
2021-10-23 16:25:19.85,1020.516845703125,23.07,-6.397915599656576,-0.7767746332700588,35.41402296298932,0.13876953125000002,-1.11793212890625,10.067370605468751,-0.09146341463414635,-0.030487804878048783,0.06097560975609757,-195.875,134.125,62.75
2021-10-23 16:25:20.03,1020.5048828125,23.07,-6.409508419234771,-0.7662666467137779,35.325812396350265,0.13577880859375002,-1.129296875,10.06318359375,0.030487804878048783,0.0,0.06097560975609757,-201.0,135.5,57.125
2021-10-23 16:25:20.22,1020.5224609375,23.07,-6.446983048567478,-0.7571702658124015,35.115497534703074,0.14415283203125,-1.1286987304687501,10.06617431640625,-0.2134146341463415,-0.030487804878048783,0.12195121951219513,-201.125,131.875,58.375
2021-10-23 16:25:20.41,1020.5185546875,23.07,-6.405794107836171,-0.7780949175587767,35.24883814814383,0.1375732421875,-1.1233154296875,10.068566894531251,0.06097560975609757,-0.030487804878048783,-0.030487804878048783,-196.875,135.875,64.125
2021-10-23 16:25:20.60,1020.546630859375,23.07,-6.396506598744939,-0.7562115099188977,35.17301387512322,0.1256103515625,-1.11434326171875,10.059594726562501,0.030487804878048783,0.0,0.0,-199.125,133.5,59.0
2021-10-23 16:25:20.80,1020.52685546875,23.06,-6.3906578861682295,-0.7607716611564733,35.2286708433188,0.13278808593750002,-1.12391357421875,10.053613281250001,-0.09146341463414635,-0.030487804878048783,0.12195121951219513,-199.0,136.25,57.75
2021-10-23 16:25:20.98,1020.5322265625,23.06,-6.351298430506661,-0.7862974215800167,35.405631471434354,0.14056396484375,-1.1191284179687502,10.0619873046875,0.09146341463414635,0.0,0.06097560975609757,-197.5,138.125,62.5
2021-10-23 16:25:21.16,1020.520751953125,23.06,-6.356597854817717,-0.7750703749473015,35.398851334627096,0.12919921875,-1.12451171875,10.0811279296875,-0.030487804878048783,-0.030487804878048783,-0.030487804878048783,-196.875,134.25,61.5
2021-10-23 16:25:21.36,1020.515625,23.05,-6.323037584812211,-0.7845925632530453,35.52993146196935,0.1303955078125,-1.1107543945312501,10.07694091796875,-0.030487804878048783,-0.06097560975609757,0.0,-195.5,136.25,65.25
2021-10-23 16:25:21.55,1020.537353515625,23.06,-6.328960274134582,-0.7713848972138201,35.49725192917493,0.13099365234375002,-1.12152099609375,10.06497802734375,0.12195121951219513,0.030487804878048783,-0.12195121951219513,-197.75,134.75,64.125
2021-10-23 16:25:21.74,1020.54931640625,23.05,-6.357480468646455,-0.7383964895178574,35.35613090341067,0.12261962890625001,-1.1233154296875,10.06976318359375,0.0,0.030487804878048783,0.030487804878048783,-198.125,132.375,60.125
2021-10-23 16:25:21.94,1020.515625,23.05,-6.352111168992463,-0.727002803586625,35.299690618725734,0.12800292968750002,-1.11434326171875,10.076342773437501,0.06097560975609757,0.06097560975609757,-0.030487804878048783,-199.625,134.875,59.75
2021-10-23 16:25:22.12,1020.504150390625,23.04,-6.354691539886027,-0.7462158336034238,35.28930755801156,0.14594726562500002,-1.12032470703125,10.073352050781251,-0.030487804878048783,0.0,0.09146341463414635,-198.625,134.5,63.25
2021-10-23 16:25:22.31,1020.523193359375,23.04,-6.364575100681321,-0.7279913380906912,35.05754025593111,0.13458251953125,-1.11494140625,10.084716796875,0.24390243902439027,0.0,-0.12195121951219513,-202.0,132.0,59.125
2021-10-23 16:25:22.50,1020.522705078125,23.04,-6.327231377159922,-0.7502083390569695,35.19463581610613,0.13338623046875,-1.1101562500000002,10.074548339843751,0.030487804878048783,-0.06097560975609757,0.030487804878048783,-197.625,136.5,60.875
2021-10-23 16:25:22.69,1020.483642578125,23.04,-6.323039450415034,-0.7589230502021656,35.244886055206706,0.13278808593750002,-1.1191284179687502,10.0572021484375,0.030487804878048783,-0.06097560975609757,0.0,-196.75,134.25,63.375
2021-10-23 16:25:22.88,1020.52685546875,23.03,-6.320698736194171,-0.7516562663075222,35.303053870571524,0.12381591796875001,-1.1191284179687502,10.068566894531251,-0.030487804878048783,0.0,0.06097560975609757,-197.375,135.25,61.875
2021-10-23 16:25:23.08,1020.50830078125,23.03,-6.317263549022358,-0.7356551150809774,35.28757219422144,0.12142333984375,-1.1185302734375,10.076342773437501,0.1829268292682927,0.0,0.030487804878048783,-198.625,135.0,58.375
2021-10-23 16:25:23.28,1020.50390625,23.03,-6.30244010814846,-0.7402517741191103,35.302298644953495,0.13398437500000002,-1.10357666015625,10.074548339843751,-0.030487804878048783,0.030487804878048783,0.030487804878048783,-197.125,134.125,63.125
2021-10-23 16:25:23.46,1020.5341796875,23.03,-6.282533325717704,-0.7434512495310799,35.30153982561185,0.13338623046875,-1.0958007812500001,10.079931640625,-0.030487804878048783,0.0,-0.030487804878048783,-196.875,133.75,62.875
2021-10-23 16:25:23.65,1020.540283203125,23.03,-6.273946079632767,-0.7597634786241794,35.358400396580265,0.13936767578125,-1.1101562500000002,10.080529785156251,0.030487804878048783,-0.030487804878048783,0.030487804878048783,-197.625,136.0,59.375
2021-10-23 16:25:23.83,1020.521240234375,23.03,-6.275409283665969,-0.7669378024151692,35.43498687214958,0.1351806640625,-1.117333984375,10.070361328125001,0.0,0.030487804878048783,0.06097560975609757,-196.125,135.375,62.625
2021-10-23 16:25:24.02,1020.5146484375,23.03,-6.274676395364791,-0.770226043990884,35.534031656742684,0.12860107421875,-1.1191284179687502,10.07275390625,0.0,-0.030487804878048783,0.030487804878048783,-196.25,136.375,63.5
2021-10-23 16:25:24.21,1020.557861328125,23.02,-6.299975770380553,-0.7482729488965073,35.37983763105563,0.12979736328125002,-1.1101562500000002,10.0811279296875,-0.030487804878048783,-0.030487804878048783,0.030487804878048783,-199.5,133.375,58.875
2021-10-23 16:25:24.41,1020.518798828125,23.02,-6.330394174716215,-0.7343116805585264,35.28920036488582,0.12860107421875,-1.12391357421875,10.075146484375,-0.06097560975609757,0.0,0.0,-197.75,132.75,60.5
2021-10-23 16:25:24.60,1020.5380859375,23.02,-6.308390062858605,-0.758899360687341,35.487939069765225,0.13278808593750002,-1.1161376953125002,10.062585449218751,-0.12195121951219513,-0.030487804878048783,0.12195121951219513,-197.125,138.75,61.75
2021-10-23 16:25:24.78,1020.53515625,23.02,-6.322728983221902,-0.7259838505329117,35.33711609655079,0.11663818359375001,-1.112548828125,10.07694091796875,0.09146341463414635,-0.06097560975609757,-0.030487804878048783,-198.625,132.75,57.875
2021-10-23 16:25:24.97,1020.50634765625,23.01,-6.3334317422364,-0.7327268149086819,35.41119974044429,0.12800292968750002,-1.1310913085937502,10.06378173828125,-0.030487804878048783,0.0,0.06097560975609757,-198.125,136.625,62.125
2021-10-23 16:25:25.16,1020.49951171875,23.02,-6.361203507173311,-0.7232709080885342,35.36427993691007,0.12680664062500002,-1.1281005859375002,10.062585449218751,-0.12195121951219513,0.0,0.09146341463414635,-197.75,133.5,63.875
2021-10-23 16:25:25.34,1020.532470703125,23.01,-6.384366524329518,-0.7134635934188917,35.220471037826194,0.13099365234375002,-1.1233154296875,10.073352050781251,-0.030487804878048783,-0.030487804878048783,0.030487804878048783,-198.25,131.625,60.375
2021-10-23 16:25:25.55,1020.527587890625,23.01,-6.3916712177375645,-0.6966077119633909,35.08321059106149,0.12261962890625001,-1.1221191406250002,10.070361328125001,0.15243902439024393,-0.030487804878048783,-0.030487804878048783,-199.75,132.0,61.625
2021-10-23 16:25:25.73,1020.560791015625,23.01,-6.34694954507818,-0.7098842393189825,35.29072858877746,0.11484375000000001,-1.1131469726562502,10.068566894531251,-0.09146341463414635,-0.030487804878048783,0.06097560975609757,-196.875,137.5,63.875
2021-10-23 16:25:25.91,1020.52099609375,23.0,-6.367725326604885,-0.68727149940617,35.257194259336046,0.11185302734375001,-1.1209228515625,10.062585449218751,-0.24390243902439027,0.0,0.2134146341463415,-196.875,132.5,63.125
2021-10-23 16:25:26.11,1020.563720703125,23.01,-6.3695748467969,-0.6749334130261916,35.17402632001649,0.11723632812500001,-1.1185302734375,10.067370605468751,0.09146341463414635,-0.030487804878048783,0.0,-199.125,133.125,61.0
2021-10-23 16:25:26.29,1020.564453125,23.01,-6.371481088517486,-0.6786288638556525,35.19374339456295,0.11962890625000001,-1.1340820312500002,10.053613281250001,0.1829268292682927,0.0,-0.09146341463414635,-197.5,133.875,64.125
2021-10-23 16:25:26.48,1020.529296875,23.01,-6.384943261523171,-0.6728358805637111,35.164203123701654,0.11723632812500001,-1.12989501953125,10.068566894531251,-0.030487804878048783,-0.030487804878048783,0.06097560975609757,-197.375,132.625,62.75
2021-10-23 16:25:26.69,1020.58203125,23.0,-6.392072113402092,-0.6756484988787301,35.069828080952135,0.12919921875,-1.1227172851562501,10.051220703125,0.09146341463414635,0.0,0.06097560975609757,-200.75,133.5,60.125
2021-10-23 16:25:26.88,1020.558837890625,23.0,-6.367649847922468,-0.7019913131025346,35.165333298978226,0.13458251953125,-1.1167358398437501,10.0691650390625,-0.06097560975609757,0.030487804878048783,0.09146341463414635,-195.25,133.625,61.75
2021-10-23 16:25:27.06,1020.532958984375,23.0,-6.3738656866548205,-0.7028059786812253,35.102164504917695,0.13218994140625,-1.12152099609375,10.079931640625,0.0,0.030487804878048783,0.06097560975609757,-197.125,131.5,62.75
2021-10-23 16:25:27.26,1020.583251953125,23.0,-6.32067021032436,-0.7144829889120851,35.150115885438716,0.12860107421875,-1.09639892578125,10.0787353515625,0.2134146341463415,-0.030487804878048783,0.0,-195.625,133.125,60.75
2021-10-23 16:25:27.45,1020.58056640625,23.0,-6.3091401697773755,-0.7149390359005191,35.13786830591477,0.12680664062500002,-1.10357666015625,10.074548339843751,-0.030487804878048783,-0.030487804878048783,0.030487804878048783,-199.0,134.375,59.875
2021-10-23 16:25:27.63,1020.56982421875,22.99,-6.297406139810242,-0.7276187564944454,35.154689588029065,0.13338623046875,-1.10537109375,10.080529785156251,-0.030487804878048783,-0.06097560975609757,0.030487804878048783,-197.5,134.0,59.625
2021-10-23 16:25:27.83,1020.533203125,23.0,-6.348331944415004,-0.702693245605154,34.872316301483565,0.13099365234375002,-1.1227172851562501,10.06497802734375,0.09146341463414635,0.0,0.0,-201.0,129.25,59.25
2021-10-23 16:25:28.01,1020.563720703125,22.99,-6.349482372420542,-0.7182621659852416,34.84306398969276,0.13697509765625002,-1.12152099609375,10.071557617187501,0.09146341463414635,-0.06097560975609757,0.0,-201.0,133.875,60.125
2021-10-23 16:25:28.20,1020.5693359375,22.99,-6.35297581913005,-0.7106699989559938,34.822623301244235,0.12261962890625001,-1.1209228515625,10.060791015625,0.030487804878048783,0.0,0.030487804878048783,-199.625,133.0,59.75
2021-10-23 16:25:28.39,1020.568359375,22.99,-6.362847718953698,-0.7268641775663794,34.981302502451236,0.1244140625,-1.136474609375,10.050622558593751,-0.24390243902439027,-0.030487804878048783,0.09146341463414635,-197.25,135.25,63.0
2021-10-23 16:25:28.58,1020.563232421875,22.99,-6.369618624186181,-0.7206009727527485,34.93692625743478,0.12620849609375,-1.12032470703125,10.0691650390625,-0.06097560975609757,-0.030487804878048783,0.030487804878048783,-199.5,132.875,61.25
2021-10-23 16:25:28.76,1020.53564453125,22.99,-6.369503092616702,-0.7238686212623283,34.99138860708555,0.1244140625,-1.129296875,10.0787353515625,-0.06097560975609757,-0.030487804878048783,0.030487804878048783,-201.0,135.75,65.25
2021-10-23 16:25:28.95,1020.494384765625,22.99,-6.384465980823962,-0.724760090204452,34.94339136452681,0.13218994140625,-1.1233154296875,10.0548095703125,-0.12195121951219513,-0.030487804878048783,0.09146341463414635,-197.5,131.375,61.125
2021-10-23 16:25:29.15,1020.55078125,22.99,-6.38594035762643,-0.7114523163828783,34.88092788740544,0.122021484375,-1.1257080078125001,10.080529785156251,0.09146341463414635,0.0,-0.06097560975609757,-198.25,131.625,59.625
2021-10-23 16:25:29.34,1020.504638671875,22.98,-6.370561535840554,-0.7114039757234961,34.93846853124206,0.12142333984375,-1.12032470703125,10.074548339843751,-0.030487804878048783,0.0,0.06097560975609757,-199.375,134.625,62.375
2021-10-23 16:25:29.52,1020.56298828125,22.99,-6.402762150177737,-0.7052653042898561,34.72484158785425,0.13817138671875,-1.12032470703125,10.06617431640625,-0.12195121951219513,0.0,0.09146341463414635,-201.0,129.75,58.375
2021-10-23 16:25:29.71,1020.513916015625,22.98,-6.377986766050061,-0.7291258221925183,34.81157458235968,0.136376953125,-1.12032470703125,10.06617431640625,0.0,0.0,0.0,-196.75,132.625,63.5
2021-10-23 16:25:29.89,1020.521728515625,22.99,-6.35406595926227,-0.7338061228225254,34.88382223749376,0.12680664062500002,-1.1131469726562502,10.07574462890625,-0.06097560975609757,0.0,0.06097560975609757,-197.875,133.375,64.5
2021-10-23 16:25:30.08,1020.53955078125,22.98,-6.381002992196051,-0.6992081232476837,34.76267230458559,0.112451171875,-1.13348388671875,10.053613281250001,0.15243902439024393,0.030487804878048783,0.06097560975609757,-203.0,133.125,58.75
2021-10-23 16:25:30.28,1020.503173828125,22.98,-6.393444186630289,-0.6984248895104278,34.78916235606767,0.12142333984375,-1.1352783203125,10.05899658203125,-0.06097560975609757,0.0,0.09146341463414635,-200.75,134.125,62.625
2021-10-23 16:25:30.46,1020.52490234375,22.98,-6.367200880488151,-0.7200819501741611,34.845263609571674,0.136376953125,-1.112548828125,10.07215576171875,0.0,-0.030487804878048783,0.06097560975609757,-201.375,136.125,56.25
2021-10-23 16:25:30.64,1020.521240234375,22.97,-6.359130364141383,-0.714677969669742,34.82976426839235,0.1256103515625,-1.1089599609375,10.06976318359375,-0.15243902439024393,0.030487804878048783,0.030487804878048783,-200.0,133.25,61.125
2021-10-23 16:25:30.85,1020.509521484375,22.97,-6.329279725891608,-0.7245749946537577,34.99393831705239,0.1184326171875,-1.12391357421875,10.06019287109375,0.12195121951219513,0.0,-0.030487804878048783,-196.25,134.5,66.75
2021-10-23 16:25:31.03,1020.532470703125,22.97,-6.330648119145788,-0.7465653331982508,35.11247971792153,0.13577880859375002,-1.1251098632812502,10.0691650390625,-0.15243902439024393,-0.030487804878048783,0.06097560975609757,-197.0,135.375,59.5
2021-10-23 16:25:31.22,1020.526611328125,22.96,-6.351378335800581,-0.7281741044882369,34.98619870715494,0.12620849609375,-1.1227172851562501,10.060791015625,0.12195121951219513,-0.030487804878048783,0.0,-200.0,132.0,60.75
2021-10-23 16:25:31.42,1020.49853515625,22.96,-6.301456190322417,-0.7639054828616059,35.307480517217876,0.1303955078125,-1.1209228515625,10.075146484375,0.0,0.030487804878048783,0.06097560975609757,-191.875,136.25,63.625
2021-10-23 16:25:31.60,1020.5283203125,22.96,-6.331503693096789,-0.7488897660440879,35.29066757001083,0.1256103515625,-1.1281005859375002,10.05780029296875,-0.12195121951219513,0.030487804878048783,0.030487804878048783,-198.25,134.375,62.0
2021-10-23 16:25:31.78,1020.521728515625,22.96,-6.335174588610756,-0.7444341349171304,35.28562871974975,0.12919921875,-1.1191284179687502,10.065576171875001,0.0,0.0,0.0,-195.125,132.25,63.125
2021-10-23 16:25:32.01,1020.52587890625,22.96,-6.342859081309385,-0.7423533908022258,35.24061971504427,0.131591796875,-1.1167358398437501,10.043444824218751,0.030487804878048783,-0.06097560975609757,0.09146341463414635,-197.5,133.25,58.75
